"trial_num","choice1","choice2","state","pos1","pos2","money","rts1","rts2","stim1.ons.sl","stim1.ons.ms","choice1.ons.sl","choice1.ons.ms","stim2.ons.sl","stim2.ons.ms","choice2.ons.sl","choice2.ons.ms","rew.ons.sl","rew.ons.ms","id"
1,2,2,3,0,0,1,0.694300739440223,0.896827580785612,1411.8085173443,1411.79336731881,2146.342416998,2146.33166536503,3155.21349075809,3155.18758909777,4066.63079531491,4066.62346465513,5077.39171274006,5077.3658110816,"01135"
2,1,2,2,0,1,0,0.663139394728205,0.915710867422604,6592.9857330732,6592.97595886327,7272.22643327899,7272.2195913326,8275.08050284348,8275.05948829092,9211.45234510116,9211.44550315477,10218.674020784,10218.6525175199,"01135"
3,2,2,3,0,1,1,0.366078157830998,1.06382339400079,11735.5787627902,11735.5689885803,12117.8613440227,12117.8545020763,13124.2101826761,13124.1896568332,14201.4332902785,14201.4259596206,15203.9726302549,15203.9521044139,"01135"
4,1,1,2,0,1,1,0.570404125806817,0.883209172819988,16711.1178227365,16711.1085372362,17297.818738237,17297.8118962906,18300.778857993,18300.754911175,19196.9136951845,19196.9068532381,20203.7561314851,20203.7316959575,"01135"
5,1,2,3,1,0,1,0.340507844844979,1.3333213563219,21720.1184047908,21720.1091192905,22076.9601813313,22076.9533393849,23079.9300752971,23079.9056397695,24422.3016213961,24422.2947794478,25429.7950201388,25429.7705846112,"01135"
6,2,1,2,0,0,1,0.429399894062954,0.92716868608295,26946.2794710789,26946.2706742883,27391.9629596509,27391.9561177045,28394.8717647977,28394.8458631393,29342.5264673419,29342.5196253937,30345.1029493213,30345.0780250821,"01135"
7,2,1,2,1,0,0,0.356132409588099,1.37854017772952,31855.2551777661,31855.2454035562,32227.5543800443,32227.5475380979,33232.1213800609,33232.0969445333,34619.1972342897,34619.1894149221,35621.7927759793,35621.7683404516,"01135"
8,2,2,3,0,1,0,0.390920780817396,1.13241880569512,37131.4167083297,37131.4079115391,37538.6015352365,37538.5946932901,38541.4800403286,38541.4551160913,39682.6592304483,39682.6518997885,40690.7928400002,40690.7684044726,"01135"
9,1,1,2,1,0,0,0.452898563058625,0.916239652227887,42207.2709377035,42207.2611634936,42676.3045272697,42676.2976853214,43679.7206139583,43679.6961784307,44609.0911889896,44609.0843470413,45616.2600839324,45616.2356484048,"01135"
10,2,1,3,1,1,1,0.501045836957928,0.720813103223918,47132.7978043221,47132.7885188218,47650.1956552658,47650.1888133194,48655.3735434599,48655.3471530918,49389.3395614605,49389.3322308026,50392.1760374475,50392.1516019199,"01135"
11,2,1,3,1,0,0,0.673025031572251,0.502154232468456,51908.0261421055,51908.0173453148,52597.3499182146,52597.3430762682,53600.4331930261,53600.408268787,54112.906307837,54112.8994658887,55116.8941858597,55116.8697503321,"01135"
12,2,2,3,1,0,0,0.374770363532662,0.483180045670451,56633.3165705614,56633.3067963514,57024.2263589948,57024.2195170466,58027.328204805,58027.3037692793,58518.5556062181,58518.5487642717,59524.8604609221,59524.8355366848,"01135"
13,1,2,2,0,1,1,0.311863053839261,0.67811250831619,61041.2031858061,61041.1934115961,61369.5115973465,61369.5023118444,62372.7307336871,62372.7058094498,63071.4978636019,63071.490532944,64074.3059943784,64074.2820475604,"01135"
14,1,2,2,0,1,1,0.42002398231125,0.64564355732,65582.819576377,65582.8088247459,66019.0191481691,66019.0118175112,67022.1356552951,67022.1107310578,67680.6506301202,67680.6437881719,68683.5252255276,68683.50079,"01135"
15,1,2,3,1,0,0,0.468082799603508,1.39175452100244,70191.1283397879,70191.118565578,70675.3916159756,70675.3842853177,71680.5665719062,71680.5416476689,73085.1583006755,73085.1514587291,74088.0763913225,74088.0524445046,"01135"
16,1,2,2,1,1,1,0.414489824132033,1.22502163405625,75600.9004003052,75600.8906260915,76031.5619042329,76031.5550622847,77040.2477566972,77040.2233211696,78278.1109969169,78278.1041549705,79281.0955521986,79281.0706279594,"01135"
17,1,2,2,1,0,0,0.490338188979877,1.05085985816186,80793.5281040333,80793.5193072446,81300.1230084449,81300.1161664966,82303.3934593908,82303.3680464439,83363.471623756,83363.4647818096,84369.8776415419,84369.8532060143,"01135"
18,1,1,3,0,1,1,0.41782185260854,1.33240453534745,85886.0595806576,85886.0493177362,86320.0799921416,86320.0731501952,87325.5496405289,87325.5252050012,88670.729806114,88670.7224754579,89679.3819375522,89679.3575020246,"01135"
19,1,2,3,0,0,0,0.595701738309799,0.810689904183164,91195.6801897772,91195.6709042769,91807.5697353296,91807.5619159602,92810.7551506441,92810.730226405,93642.3435429856,93642.3362123277,94645.3799015842,94645.3559547681,"01135"
20,2,1,3,1,1,0,0.402894189099243,0.722111915760252,96154.5991816055,96154.5894073956,96573.7564393729,96573.749108715,97577.3191392254,97577.2947036978,98312.6051644012,98312.595878901,99315.6620488409,99315.6376133133,"01135"
21,2,2,3,1,0,0,0.4113733170052,0.381966137554627,100829.704413204,100829.695127703,101257.347640824,101257.340310166,102260.708503222,102260.684067694,102664.079921767,102664.072591109,103671.298665185,103671.274229659,"01135"
22,1,1,3,1,1,1,0.494081711733088,0.721720149991597,105187.692215966,105187.681953045,105697.95147202,105697.944630073,106701.211660048,106701.187713232,107428.203778611,107428.196447954,108431.222543631,108431.197619395,"01135"
23,1,1,2,1,1,0,0.53907875747791,0.742244526629293,109946.193458023,109946.184172524,110501.610056881,110501.602726225,111505.03445165,111505.010504834,112257.564139593,112257.557297645,113260.688466089,113260.664519273,"01135"
24,1,2,3,0,0,0,0.414279678598177,0.719588883315737,114771.62751851,114771.617744299,115202.081809167,115202.07496722,116211.065286353,116211.040362116,116943.402920827,116943.396078881,117947.249561504,117947.225125978,"01135"
25,1,2,2,1,1,0,0.621960644446517,0.907900295538639,119463.51213786,119463.500897517,120101.619537868,120101.612695917,121103.716106093,121103.694602828,122023.795805007,122023.788474349,123027.001257453,123026.977310635,"01135"
26,2,2,3,1,1,0,0.844953889001772,0.736781231476925,124539.163552359,124539.154266858,125400.402013293,125400.394682635,126403.927571144,126403.903624326,127145.482286444,127145.474467073,128149.068933111,128149.044986295,"01135"
27,2,1,3,0,1,1,0.393458654662027,0.553569513762341,129665.157528514,129665.148243014,130074.824516263,130074.816696893,131078.30218048,131078.277256243,131637.435911722,131637.429069774,132640.614973798,132640.590049561,"01135"
28,2,1,3,1,1,0,0.42532649169334,0.343718184396494,134156.606804514,134156.597030303,134598.164598688,134598.156290609,135601.747824382,135601.722900147,135952.516395018,135952.509553069,136955.775605625,136955.751170097,"01135"
29,2,1,3,0,1,0,0.49320643115243,0.686320401871853,138464.44019918,138464.430913679,138973.834926287,138973.827595627,139977.393716453,139977.368303506,140669.577426655,140669.570095999,141673.522298152,141673.498351336,"01135"
30,2,2,2,1,1,1,0.485554690194476,0.522753381819712,143189.576683817,143189.567398315,143691.381247493,143691.374405546,144696.043057354,144696.018621827,145231.338465773,145231.331135113,146233.217069097,146233.196054542,"01135"
31,1,2,3,0,1,0,0.527674696977556,0.880565248786297,147747.879118426,147747.869344216,148291.733803278,148291.72696133,149295.216843311,149295.18898681,150180.552154945,150180.545312999,151183.962377109,151183.937941581,"01135"
32,2,2,2,1,0,1,0.485177405656941,1.61069831000532,152689.986956317,152689.977182107,153191.462129086,153191.45528714,154196.380511982,154196.356565168,155819.747913329,155819.741071383,156822.996372303,156822.971448064,"01135"
33,1,1,3,1,0,1,0.659179861913799,1.53823279952849,158333.548854683,158333.539080473,159009.065091847,159009.056783767,160012.750458045,160012.725533806,161557.76240946,161557.755078802,162559.72751455,162559.707477419,"01135"
34,2,1,3,0,0,1,0.522681052658299,1.30348460030655,164077.295436764,164077.286151264,164616.235648405,164616.228317747,165619.928345261,165619.903909734,166933.161502708,166933.154660759,167937.646399353,167937.621475115,"01135"
35,2,2,2,0,1,1,0.647592046250793,1.11856337311474,169453.634320384,169453.625034884,170117.527066013,170117.519246643,171127.040794136,171127.016358608,172258.193598773,172258.186756823,173264.06985433,173264.044930093,"01135"
36,2,1,3,0,1,0,0.531393784203829,1.62121975926675,174780.014280122,174780.004505912,175327.596360281,175327.589518333,176336.719608679,176336.695173154,177970.284444198,177970.27760225,178974.536225915,178974.511790387,"01135"
37,1,2,2,0,0,1,0.331425159420178,0.780521802418662,180490.286633622,180490.276859408,180837.882006705,180837.875164758,181846.509702615,181846.484778378,182639.501202473,182639.494360525,183642.9050714,183642.881124582,"01135"
38,2,2,2,0,1,0,0.503713219097335,1.21993562344505,185148.596838728,185148.588041939,185668.61759915,185668.609291073,186672.426120408,186672.401196169,187904.33491138,187904.327580722,188909.134537615,188909.109613376,"01135"
39,1,2,2,0,0,1,0.359410191194911,0.940619235825579,190424.850246873,190424.840961372,190800.56455842,190800.557716472,191804.370147411,191804.344734462,192751.096299924,192751.089457978,193754.683924016,193754.658999776,"01135"
40,1,2,2,1,1,1,0.387087335326214,0.770136214687227,195266.853549579,195266.843775367,195670.231321361,195670.224479415,196674.061345881,196674.036910353,197455.900471166,197455.893140508,198459.575085733,198459.550650205,"01135"
41,1,1,3,0,1,1,0.342144047739566,1.06614819005154,199975.550300289,199975.540037367,200333.837682614,200333.830840666,201337.755675029,201337.730750792,202410.266635586,202410.259793637,203418.640690725,203418.615766486,"01135"
42,1,2,2,1,1,1,0.356945623929278,1.16250187182413,204934.427751724,204934.4174888,205307.55629579,205307.54896513,206311.49628018,206311.471355943,207482.334824391,207482.327982442,208486.042671273,208486.018235747,"01135"
43,1,1,3,1,0,0,0.452404476702213,2.02648297632004,209993.553907951,209993.543645028,210462.145214474,210462.138372526,211467.166226583,211467.141791055,213505.627746249,213505.620415589,214509.288676919,214509.264241394,"01135"
44,2,1,3,1,1,0,0.371435402794305,0.93414796133402,216024.955026412,216024.945740914,216408.72866351,216408.721821563,217412.732180269,217412.708233455,218357.361275848,218357.35394519,219364.1875847,219364.162171753,"01135"
45,1,2,2,0,0,1,0.376361116346743,0.766974746189589,220879.806529272,220879.796266351,221272.376956126,221272.370114179,222276.391224518,222276.366788993,223048.813386369,223048.806544421,224056.019912023,224055.992055522,"01135"
46,1,2,2,1,0,1,0.262574152113302,0.932071430239375,225571.623217857,225571.614421068,225850.437469242,225850.430627296,226854.46493282,226854.440008583,227805.797182193,227805.789851537,228814.553897688,228814.52995087,"01135"
47,1,2,2,1,0,1,0.385706239332649,0.621435280614605,230330.284756972,230330.27449405,230732.147037365,230732.140195416,231736.856740858,231736.831327911,232370.561836302,232370.554994354,233374.36400432,233374.338591371,"01135"
48,1,2,2,0,0,1,0.676274467967232,0.579235614013669,234888.524147922,234888.514373712,235580.959055344,235580.952213395,236584.92347526,236584.898551024,237170.341036879,237170.333706221,238174.005388523,238173.980952995,"01135"
49,1,2,2,0,0,1,0.451010185524865,0.718014746660629,239680.433642639,239680.423868429,240147.684904857,240147.678062908,241153.893483583,241153.869048055,241884.110114306,241884.102783648,242890.16328308,242890.138847554,"01135"
50,1,2,3,1,0,0,0.516094700682515,1.42696953653649,244405.710387202,244405.70061299,244938.095035629,244938.087704971,245946.152406339,245946.127482101,247385.057968402,247385.051126454,248388.907052631,248388.883105816,"01135"
51,2,1,3,1,0,0,0.693533769474016,1.31253894051952,249898.973756734,249898.963982522,250608.737362558,250608.73052061,251612.835689165,251612.810764926,252930.73896455,252930.72967905,253934.647182755,253934.622747229,"01135"
52,1,2,2,0,0,1,0.845722141973965,0.846549040212267,255442.134961326,255442.125187116,256304.11284131,256304.105999364,257308.484845821,257308.459432872,258175.165098639,258175.158256693,259179.048392607,259179.023957079,"01135"
53,1,2,2,1,0,1,0.589599698481834,0.689602290694893,260684.978650682,260684.96936518,261290.868785618,261290.861943671,262295.165528705,262295.139627045,262994.076339519,262994.069008863,263997.884860775,263997.860425247,"01135"
54,1,2,2,0,0,0,0.434917924794718,0.828842079848982,265510.37117077,265510.36188527,265961.49791736,265961.491075413,266967.368308393,266967.344361575,267808.330168933,267808.321372144,268812.105457872,268812.074180396,"01135"
55,2,2,3,0,1,0,0.551561402144216,0.959540872392608,270319.045880634,270319.037083846,270886.89038858,270886.883546632,271893.103854412,271893.077464042,272864.484476354,272864.476168275,273868.341868663,273868.317433136,"01135"
56,1,2,2,1,1,1,0.396318100043572,0.484446294683949,275378.287861262,275378.278087052,275790.771287866,275790.764445918,276794.845667655,276794.820743417,277298.31722299,277298.309892332,278304.27607063,278304.251635103,"01135"
57,1,2,2,0,0,0,0.308600910972018,0.830053593284902,279819.550474271,279819.541677479,280144.423250698,280144.41592004,281148.513269225,281148.488833698,281984.959444357,281984.952113699,282988.891120667,282988.866685141,"01135"
58,2,1,3,1,1,1,0.438592539359888,0.553842214245378,284494.5134911,284494.502739469,284949.597326949,284949.58853016,285954.014292829,285953.98887988,286517.457962342,286517.450631684,287521.416517733,287521.392082207,"01135"
59,2,1,3,1,1,1,0.596859004872385,0.574240992273189,289036.277472252,289036.267698042,289649.307668211,289649.299360132,290653.445091661,290653.420656133,291246.509507131,291246.502665184,292250.342952624,292250.318517096,"01135"
60,2,1,3,0,0,0,0.438508969857139,0.640440256176589,293761.45989568,293761.45012147,294216.147875991,294216.141034042,295220.487625604,295220.463190079,295870.817187559,295870.809856903,296874.855891479,296874.832433373,"01135"
61,1,2,2,1,1,1,0.371426117291776,0.659001482566964,298386.414140156,298386.404365946,298774.1072358,298774.099905143,299778.44307573,299778.418151492,300447.56502416,300447.558182213,301451.55876671,301451.534331184,"01135"
62,1,2,2,1,0,1,0.693402306338612,0.611646408457091,302961.421189805,302961.411904305,303670.993221097,303670.986379148,304675.248423787,304675.223988261,305292.255257428,305292.248415479,306296.386327639,306296.293961346,"01135"
63,1,1,3,0,1,1,0.600217423718277,2.47017154846071,307803.439153828,307803.430357039,308419.906939739,308419.900097791,309427.581650091,309427.557703277,311909.53674639,311909.529904444,312914.53039071,312914.509864869,"01135"
64,1,2,2,0,0,1,0.662387757913166,1.2377178452316,314432.074366106,314432.065080605,315110.690005528,315110.68267487,316115.185653806,316115.161218278,317372.606112501,317372.598781841,318376.793384425,318376.768460186,"01135"
65,1,2,2,0,1,1,0.384547506637318,1.16022985651398,319891.986662112,319891.976887902,320292.771335758,320292.764493812,321299.13679057,321299.112355044,322471.01335597,322471.006025312,323475.111193867,323475.085780919,"01135"
66,1,1,3,1,0,0,0.628299220179542,0.783759021049264,324984.515206473,324984.505920973,325628.997346792,325628.990504844,326633.388899723,326633.364464195,327437.610479128,327437.603637179,328444.896664599,328444.872229073,"01135"
67,0,0,0,0,0,0,0,0,331312.041192435,331312.016756909,0,0,0,0,0,0,0,0,"01135"
68,2,0,3,0,1,0,2.06553290347802,0,335319.811690055,335319.802404555,337401.609617041,337401.602775095,338403.972043803,338403.945653433,0,0,0,0,"01135"
69,2,2,3,0,0,1,2.8425455234501,2.17063841364143,342415.89609232,342415.886806821,345274.72423286,345274.716902202,346276.90534801,346276.884822166,348459.926957322,348459.919137955,349464.163100302,349464.140619617,"01135"
70,2,0,3,0,0,0,2.6490928763269,0,350981.442683294,350981.431931663,353646.722878154,353646.715547496,354648.799409248,354648.778883405,0,0,0,0,"01135"
71,2,1,3,0,1,1,0.587685907998093,0.814312715432607,358661.961850278,358661.952076066,359265.813573545,359265.806731597,360267.887661086,360267.867623953,361095.586406223,361095.578098144,362097.464032127,362097.443506284,"01135"
72,1,2,3,1,1,0,0.676710886482397,0.983800952413731,363604.25099978,363604.24122557,364297.13503219,364297.127701532,365299.214006836,365299.193480993,366290.724616008,366290.717774061,367296.236293502,367296.21527895,"01135"
73,2,2,2,0,1,0,0.309913098777542,0.103306318698742,368813.559860444,368813.550574945,369139.741403705,369139.734561756,370141.82966385,370141.809626719,370252.268472159,370252.261630213,371254.121662537,371254.101136692,"01135"
74,1,1,2,0,1,0,0.40066909000052,0.606844827381792,372770.796710586,372770.786447667,373187.676577229,373187.669735281,374192.213765902,374192.193240058,374813.215808222,374813.208477564,375815.008887202,375814.98885007,"01135"
75,2,2,2,1,1,1,0.615685112377832,0.940920023316721,377328.972569166,377328.963772377,377960.953493817,377960.946163159,378967.49244087,378967.472403737,379922.547687154,379922.540356496,380924.35689358,380924.336367738,"01135"
76,2,1,3,1,0,0,0.582820794550571,1.55260968625771,382438.164188173,382438.155391382,383037.250983652,383037.244141705,384043.287536269,384043.267010426,385610.194697393,385610.185900602,386614.351669265,386614.331143422,"01135"
77,1,2,2,1,0,1,0.532782699563541,0.841389723018438,388131.763204105,388131.753918603,388680.837806258,388680.830475599,389686.849434637,389686.829397503,390542.56204547,390542.55275997,391544.383958371,391544.363921238,"01135"
78,1,2,2,1,0,0,0.514391055732631,0.40100483414426,393057.425443541,393057.415669331,393588.007727493,393588.000396835,394595.702474976,394595.681460425,395010.892869273,395010.886027327,396014.630527502,396014.610001657,"01135"
79,1,2,2,0,1,0,0.408995251507804,0.402442620559668,397532.088978553,397532.079693051,397957.352674542,397957.345832596,398959.64912538,398959.623712432,399370.102937102,399370.096095156,400372.651562579,400372.631525448,"01135"
80,2,2,3,0,1,1,0.254423437692822,0.74526280293685,401889.948739152,401889.93945365,402160.654305222,402160.646974565,403162.729370184,403162.709333053,403920.58795788,403920.581115931,404922.40889336,404922.388367517,"01135"
81,2,2,2,1,1,1,0.383511928997905,0.924102027429399,406431.506973168,406431.497198956,406831.194980357,406831.187649699,407836.250690917,407836.230165072,408774.568089841,408774.561247895,409776.344063953,409776.324026819,"01135"
82,2,2,2,1,1,1,1.21295732561521,0.767523079419334,411290.363947628,411290.354173418,412519.487088513,412519.479757855,413521.584634159,413521.558243791,414294.915308906,414294.906512117,415299.553171951,415299.532157399,"01135"
83,2,2,2,1,0,1,0.686226569447172,0.7260071188648,416817.001360083,416816.991585871,417519.401075456,417519.393256089,418522.231198207,418522.210672364,419262.416546568,419262.409704618,420264.233083652,420264.212069098,"01135"
84,2,2,3,0,0,0,0.487320890093542,1.55325918256858,421775.996102046,421775.986327834,422279.434913775,422279.428071829,423281.46892705,423281.448889919,424848.287631568,424848.280789619,425851.792174866,425851.771160312,"01135"
85,1,2,2,1,1,1,1.00049286097965,1.27306383519135,427369.285813076,427369.276527576,428385.984074879,428385.977232931,429387.015254121,429387.005479911,430679.106793517,430679.099462859,431680.884722469,431680.863707915,"01135"
86,1,2,3,0,1,0,0.448166867590771,1.73255241915649,433196.462615354,433196.453818565,433660.901348401,433660.894017745,434668.08392724,434668.063401397,436414.838522706,436414.831680758,437416.63551137,437416.614496816,"01135"
87,2,2,3,1,1,0,0.436897202487671,1.33530600983431,438923.412216103,438923.401464472,439376.602787312,439376.594967943,440378.641198983,440378.620673141,441727.857136225,441727.850294277,442732.241847208,442732.221810076,"01135"
88,1,1,3,0,0,1,0.332756895646526,0.704281003005235,444249.857174344,444249.847400133,444598.772554604,444598.765712654,445604.445506576,445604.424492024,446322.951166578,446322.94383592,447324.780898847,447324.760861715,"01135"
89,1,2,2,1,0,0,0.627160524616556,0.986620323532406,448841.374332238,448841.36504674,449484.781309364,449484.774467416,450486.856374325,450486.835848484,451480.660990782,451480.654148836,452483.32592937,452483.305892238,"01135"
90,2,2,3,1,0,0,0.867340741517182,0.8567909470421,454000.694457682,454000.685172182,454884.285561388,454884.27823073,455889.718556488,455889.698030643,456760.695552394,456760.688710446,457762.519420136,457762.499383003,"01135"
91,1,2,2,0,1,0,0.457975288170928,1.03735189877807,459276.909746405,459276.900949614,459751.161787137,459751.154945189,460753.20166494,460753.181627808,461799.883784633,461799.876453975,462801.877234936,462801.856709093,"01135"
92,1,1,2,0,1,1,0.948370904241528,1.10971087035614,464319.451021675,464319.441247463,465283.941802394,465283.934471736,466291.847672833,466291.827146992,467415.712825866,467415.705006499,468417.556242032,468417.534738768,"01135"
93,1,1,2,1,1,1,0.47575555511321,1.04526119019101,469929.600757698,469929.590983488,470421.52066195,470421.513331292,471423.573734937,471423.552720383,472477.109531274,472477.102200614,473478.984713623,473478.964676492,"01135"
94,1,1,2,1,0,0,0.566494930180852,0.850192377301937,474988.693681609,474988.683907399,475571.394501323,475571.386193244,476577.118767902,476577.095309796,477441.491818253,477441.484487595,478446.888160059,478446.868122926,"01135"
95,2,1,3,1,1,0,0.604704763916743,0.715989530173829,479964.341724006,479964.331461083,480585.172228927,480585.165386979,481587.2756391,481587.255601967,482316.292974152,482316.286132203,483322.236183055,483322.215657212,"01135"
96,1,1,2,1,1,0,0.75146893810961,0.95295012202223,484839.82463111,484839.813879479,485607.426640883,485607.419310225,486611.889056843,486611.86804229,487578.879103275,487578.872261329,488581.885161821,488581.864147266,"01135"
97,2,2,2,1,0,1,0.846932189275321,1.00014001196723,490099.205796499,490099.196510999,490962.429399654,490962.422068996,491964.502021063,491964.479051668,492985.8376572,492985.830326542,493991.528691463,493991.502301095,"01135"
98,2,2,3,1,0,1,0.515713017748567,1.08193402927282,495509.075110413,495509.065336201,496040.97251443,496040.965183772,497047.364359612,497047.343833769,498143.399890823,498143.393048875,499150.83366688,499150.812652325,"01135"
99,2,2,2,0,1,1,0.402336570370608,1.02612475149363,500668.397679409,500668.387905195,501086.900553759,501086.893711811,502089.882176777,502089.861650933,503130.158767395,503130.150948025,504132.923402932,504132.898478694,"01135"
100,2,2,3,0,0,0,0.615787741589884,0.729470121767008,505643.964107143,505643.954821644,506276.014428692,506276.007586742,507282.573901588,507282.553375743,508026.176314058,508026.1689834,509027.966949485,509027.94642364,"01135"
101,2,2,2,1,1,1,0.775076100846491,0.988252616742102,510536.501057325,510536.491283115,511327.495685907,511327.488843961,512329.559999239,512329.539473396,513327.303622665,513327.296292007,514329.066890301,514329.045875747,"01135"
102,2,1,3,1,1,1,0.55967301972305,0.944973388552171,515845.683293089,515845.674496299,516421.650170242,516421.643328296,517423.715949705,517423.695912572,518376.540232362,518376.532901704,519378.365566237,519378.345529106,"01135"
103,2,1,3,0,1,1,0.483044672850156,1.15029485990453,520888.131713357,520888.122427855,521387.507874349,521387.501032401,522393.184736008,522393.164698875,523557.624104379,523557.616773719,524563.398708144,524563.37769359,"01135"
104,2,1,3,0,1,0,0.606406942733884,1.10516244133942,526080.872309221,526080.8620463,526703.462172095,526703.455330146,527705.537237056,527705.516711215,528821.973501137,528821.96665919,529823.804210827,529823.784173695,"01135"
105,1,2,2,0,0,0,0.435034237902073,1.14555681119782,531340.323848927,531340.315052139,531791.612847419,531791.606005471,532795.252274826,532795.232237693,533955.003442967,533954.996601017,534956.839528473,534956.81900263,"01135"
106,2,2,2,0,1,0,0.320135457186552,1.03541758245228,536466.304141188,536466.295344397,536802.714396093,536802.707554147,537804.763559397,537804.743522266,538853.786602587,538853.779271929,539857.699707897,539857.679182056,"01135"
107,1,1,3,0,1,1,0.41891851906621,1.19029679519917,541375.225601004,541375.215826795,541810.321175683,541810.314333733,542813.407871466,542813.387345623,544017.801281497,544017.793950839,545019.623683108,545019.603645977,"01135"
108,1,1,2,1,1,1,0.439578268524201,1.00992628514177,546534.489036025,546534.480239233,546990.349432925,546990.342590978,547992.393709123,547992.371228438,549013.48450128,549013.477659332,550015.318143232,550015.297617391,"01135"
109,1,1,2,0,0,0,0.426270680462039,0.947594343189849,551526.809438564,551526.796243381,551969.20586003,551969.199018084,552971.26039915,552971.239873309,553926.670449287,553926.663607338,554928.456686318,554928.436649187,"01135"
110,1,2,2,0,0,1,0.774168076661226,1.45617096884962,556435.666388592,556435.657103091,557225.987574046,557225.980243389,558228.111510063,558228.088540668,559694.789026104,559694.782184156,560696.577217977,560696.556692133,"01135"
111,2,1,3,0,0,1,0.764752579356355,1.02851307991114,562212.744984487,562212.735210275,562993.775293825,562993.767963167,564001.488612311,564001.467109049,565044.283528354,565044.276686408,566046.13671873,566046.116192887,"01135"
112,2,1,3,1,1,1,0.413821756821562,0.948134368340106,567555.827115715,567555.817341503,567985.830815252,567985.823484594,568987.971856138,568987.951330295,569956.262361323,569956.255519375,570963.884290937,570963.864253806,"01135"
113,2,1,2,1,1,1,0.374251841647492,1.76567819712182,572481.390146911,572481.379883992,572871.820510304,572871.813179646,573873.892154289,573873.871139739,575649.171317969,575649.164476022,576650.982479239,576650.962442107,"01135"
114,2,1,3,0,1,0,0.471471518501858,0.468358921059917,578158.266954225,578158.258157434,578646.024999499,578646.017668841,579648.081982171,579648.06145633,580129.050371885,580129.043041226,581132.224058146,581132.204509724,"01135"
115,1,2,3,0,1,0,0.604981862794375,0.88035803551611,582649.678599512,582649.655630117,583270.913268052,583270.906426106,584273.625122851,584273.59922119,585166.070684161,585166.063842215,586167.879890589,586167.859853456,"01135"
116,1,2,2,0,0,1,0.360752679052894,0.99760507038809,587675.49424519,587675.484470978,588052.416160487,588052.409318538,589054.503931923,589054.484383499,590058.458088918,590058.450758258,591060.265340501,591060.24530337,"01135"
117,1,2,2,0,0,0,0.326386553731936,0.982537146952382,592567.690075412,592567.680301202,592910.220941151,592910.213610493,593912.265706059,593912.243714083,594902.19826889,594902.190938232,595908.884317817,595908.863791974,"01135"
118,1,1,2,1,1,1,1.1207992238451,0.734640190592472,597426.437090004,597426.427315792,598563.375250038,598563.36840809,599565.822223721,599565.80169788,600314.574667886,600314.567825938,601318.718444573,601318.697918728,"01135"
119,1,1,2,1,0,1,0.599973557158592,0.869465654954183,602836.095280964,602836.085995462,603452.357319737,603452.350477789,604458.014144262,604457.994107129,605341.573970497,605341.566639837,606344.331764085,606344.310749531,"01135"
120,1,1,2,0,1,0,0.618358847752461,0.691829635814429,607861.949534772,607861.939271852,608496.474197794,608496.467355847,609500.158586573,609500.141481703,610206.430844283,610206.423513625,611208.415497795,611208.393994529,"01135"
121,1,2,3,0,0,0,0.379712204534371,1.1323498975089,612720.627641177,612720.618355675,613116.608778903,613116.601936955,614118.676024497,614118.654521232,615271.971815085,615271.964484427,616279.16954395,616279.149018107,"01135"
122,1,1,3,0,1,1,0.409715610845524,0.706112690117152,617796.542470658,617796.532696446,618222.410701588,618222.403859641,619224.194495067,619224.174946647,619938.11311792,619938.105787262,620939.930632427,620939.909617873,"01135"
123,1,1,2,1,1,0,0.514157452093059,0.704255101347371,622454.861472553,622454.852675764,622985.305940131,622985.299098184,623987.383448645,623987.363411514,624711.660780149,624711.653449491,625713.522278603,625713.501752762,"01135"
124,2,1,2,1,0,0,0.842785480326711,1.53304513712465,627230.239844473,627230.230070263,628089.213132042,628089.205801385,629091.307745427,629091.287219584,630632.904587576,630632.897256916,631640.089609966,631640.068595411,"01135"
125,2,1,3,0,0,1,1.66802747756992,2.11147804767461,633157.569564281,633157.559790069,634841.871839572,634841.864508914,635848.009555269,635847.988540716,637973.649216279,637973.641396912,638975.449137205,638975.429100076,"01135"
126,1,1,2,0,1,0,0.758869970559317,1.42489251673214,640487.542035216,640487.532261007,641262.558761334,641262.551919386,642264.855212172,642264.827844381,643698.529127881,643698.522285935,644700.340289151,644700.319763308,"01135"
127,2,1,2,0,0,0,1.00948562366648,0.352596588814777,646214.416374542,646214.407577751,647240.194389505,647240.187547559,648242.25332702,648242.226447942,648603.694358474,648603.687027814,649605.817317067,649605.797279935,"01135"
128,1,2,2,0,1,1,0.969827251883544,1.34681318826006,651123.337834358,651123.327571437,652109.357780589,652109.350449931,653112.597442774,653112.57642822,654473.513110394,654473.506268447,655475.323782953,655475.3027684,"01135"
129,2,1,2,1,0,0,0.289018768260576,0.576637140062303,656983.992286194,656983.982511984,657289.195929434,657289.189087486,658291.303738,658291.281746028,658879.206881436,658879.200039487,659880.947668387,659880.926653834,"01135"
130,2,1,3,0,1,1,0.475259513914352,1.17439073318201,661391.92581765,661391.91604344,661883.381446887,661883.373627519,662885.480947375,662885.458466692,664068.610561721,664068.603719773,665070.470594043,665070.45055691,"01135"
131,2,2,2,1,0,0,0.816760177825927,0.53068906360204,666584.667879649,666584.658105435,667417.581654979,667417.574324321,668423.447158907,668423.427121773,668968.359413372,668968.352082714,669975.970102645,669975.94859938,"01135"
132,2,1,3,0,0,1,0.314750355722936,0.476263814078266,671493.406561721,671493.397276221,671824.383332821,671824.376490872,672825.26594406,672825.257635981,673321.725969248,673321.71863859,674323.459914252,674323.4388997,"01135"
133,2,1,3,0,0,0,0.92581398045877,0.42006747754931,675834.599337993,675834.590052493,676776.698867805,676776.692025859,677778.772955345,677778.751940792,678207.832954828,678207.82562417,679209.573741779,679209.553704645,"01135"
134,2,1,2,1,0,1,0.746230938520966,0.637713740063191,691662.619654667,691662.595219141,692425.888756776,692425.881426116,693428.000475027,693427.977994343,694087.200622031,694087.193780083,695089.089976987,695089.068473725,"01135"
135,2,1,2,0,0,1,0.525160281238641,0.66226509156877,696605.535331085,696605.525556874,697146.809135566,697146.801804908,698148.898861842,698148.876381157,698820.148167262,698820.141325315,699821.964704348,699821.943201084,"01135"
136,2,2,3,0,1,0,0.532618981531414,1.16108607738533,701330.705536749,701330.695762539,701879.439507654,701879.432665706,702885.650041224,702885.62902667,704060.977391763,704060.970061105,705062.780733662,705062.759719109,"01135"
137,2,1,3,0,0,1,0.587905827742361,0.39570232476035,706573.5027986,706573.49302439,707177.588614218,707177.58177227,708179.555674151,708179.535637019,708588.486175112,708588.478844455,709590.239179825,709590.218165275,"01135"
138,2,1,2,1,0,0,0.434461469147209,0.362065355569939,711098.232773809,711098.22397702,711548.995919757,711548.989077808,712553.14653839,712553.125523837,712929.424333191,712929.417491244,713931.195420196,713931.175383065,"01135"
139,1,2,3,0,1,1,0.471606891322153,1.09200537612378,715439.410888765,715439.401603263,715927.33949402,715927.33216336,716929.377905689,716929.356891137,718033.899406755,718033.892564807,719035.726695472,719035.705680918,"01135"
140,1,2,3,0,1,0,0.351866943976347,0.694840092752202,720548.808254909,720548.798480697,720916.927027209,720916.919696551,721920.001016518,721919.980979387,722629.110727638,722629.103885688,723632.525836905,723632.504333641,"01135"
141,1,1,2,0,1,1,0.414980978226595,0.992788339282924,725140.343006382,725140.33274346,725571.578256488,725571.57141454,726578.433887972,726578.413362129,727585.425380986,727585.41853904,728587.20379865,728587.181317965,"01135"
142,1,1,2,0,0,0,1.1120791616413,1.04795056430339,730099.390529083,730099.380754873,731227.760127183,731227.751819104,732229.821996959,732229.800982406,733284.02830416,733284.021462213,734285.966041459,734285.940139802,"01135"
143,2,2,3,1,0,0,0.506190004125529,1.42578245862933,735792.93823041,735792.927967489,736315.354649911,736315.347319253,737317.431669716,737317.379866397,738754.445433268,738754.437125189,739756.25757196,739756.236557407,"01135"
144,2,1,3,0,0,1,0.503661904489491,0.931738618362942,741269.46863969,741269.458865479,741789.395078978,741789.388237031,742791.611869998,742791.585479628,743737.026323417,743737.019481469,744744.249465229,744744.228939386,"01135"
145,2,2,3,1,0,0,0.487834036161075,0.764349393157318,746261.812989047,746261.802726125,746765.899830956,746765.892989008,747767.970497523,747767.94948297,748545.25044216,748545.243600214,749552.911468619,749552.8919202,"01135"
146,1,2,2,1,0,1,0.360797151712177,0.414565085555296,751070.432474621,751070.42318912,751447.530325711,751447.522995053,752449.558474462,752449.537459908,752870.499525707,752870.492683759,753877.47928967,753877.458763827,"01135"
147,2,2,2,0,0,0,0.755144041386302,0.412973355319991,755395.023753777,755395.013490856,756166.379060512,756166.372707276,757168.4507045,757168.427735107,757594.282770853,757594.273974063,758596.08415791,758596.064120779,"01135"
148,2,1,3,0,1,1,0.669764354837753,0.740506183228717,760103.461487899,760103.451713689,760789.52165501,760789.514813062,761792.035093328,761792.01114651,762546.729280261,762546.720972182,763548.56634319,763548.546306057,"01135"
149,2,1,2,0,0,0,0.486077121764538,0.622741603892791,765062.414200757,765062.404426547,765564.804239662,765564.797397716,766567.312302165,766567.290798901,767204.28345016,767204.276608212,768206.058446849,768206.037921008,"01135"
150,1,2,3,1,1,0,0.793209216803007,0.683904705661917,769720.850493181,769720.840230262,770530.311538311,770530.304207653,771532.347506428,771532.326980585,772224.306409782,772224.299567834,773229.08306662,773229.062052067,"01135"
151,1,1,3,0,1,0,1.03810109203914,0.416513085778206,774746.586479042,774746.57621612,775801.043983461,775801.035675382,776803.074087052,776803.053072499,777233.14864962,777233.141807672,778238.127632624,778238.10759549,"01135"
152,2,2,3,1,1,1,0.348303266702715,0.495760432446332,779755.597812727,779755.587061096,780120.193959441,780120.187117493,781126.913240684,781126.892226132,781636.890510757,781636.883668808,782638.677725211,782638.657199366,"01135"
153,1,2,3,0,0,0,0.608497157722013,0.682490866063745,784146.897103462,784146.887329251,784771.636804009,784771.629962062,785773.699162496,785773.677170524,786465.267586127,786465.260744181,787471.603718307,787471.583192464,"01135"
154,1,1,2,1,1,0,0.338320376458796,1.67315209631488,788988.991306329,788988.982020829,789343.565465955,789343.558624007,790345.545232361,790345.52519523,792030.948572502,792030.941730555,793032.81251451,793032.790522534,"01135"
155,2,1,3,0,1,0,0.533294868211669,0.572274421050679,794549.011069782,794549.001784282,795098.522579161,795098.515737213,796103.968769442,796103.94775489,796690.405781252,796690.398939302,797692.215476388,797692.195439257,"01135"
156,1,2,2,1,0,1,0.397116653070043,0.846166868568616,799207.399957288,799207.390183076,799620.767949972,799620.761108024,800622.837150408,800622.816135854,801489.197786534,801489.190455874,802490.993309064,802490.959099326,"01135"
157,1,2,2,1,0,1,1.16286693860093,1.51702276200194,803999.402795719,803999.392532796,805178.531336855,805178.524494905,806180.59222921,806180.571214655,807703.249583008,807703.242741061,808709.770936482,808709.749921929,"01135"
158,2,2,2,1,0,0,0.979238350792002,1.37376655207845,810227.275815036,810227.266040824,811222.821707156,811222.814376498,812224.863051089,812224.842036536,813604.2148352,813604.207993252,814605.973215729,814605.952689888,"01135"
159,1,1,2,1,1,1,1.01118682506421,0.927449205933954,816121.288671054,816121.277430713,817148.760556759,817148.753226101,818150.841974959,818150.819982983,819085.336191313,819085.329349365,820087.128292872,820087.107767029,"01135"
160,1,1,2,0,1,0,0.448951248010417,0.507114155760064,821597.856222337,821597.846448125,822063.035840565,822063.028998619,823069.267388688,823069.244908003,823590.640411183,823590.633569235,824592.436911134,824592.415896583,"01135"
161,2,2,3,0,0,0,0.551065849656879,1.37995167269946,826105.968572982,826105.95879877,826673.279897723,826673.273055775,827677.668029681,827677.646037705,829071.76616569,829071.759323742,830073.55191401,830073.531388169,"01135"
162,1,1,3,0,0,1,0.786232873813788,0.485362626952337,831582.558604946,831582.548830736,832385.021315111,832385.014473164,833387.972638074,833387.952112233,833887.509584837,833887.502742888,834890.439404536,834890.419367405,"01135"
163,1,1,2,0,1,0,0.413828598770124,0.853049867842856,836407.913983036,836407.904208826,836838.023732761,836838.016890815,837845.991180729,837845.9711436,838713.225142594,838713.217811935,839715.813353624,839715.792339072,"01135"
164,2,1,3,0,0,0,0.424120842786579,0.449144288675598,841233.312367652,841233.30259344,841673.685038762,841673.678196816,842675.723939145,842675.701947169,843134.687159277,843134.678851198,844140.391877435,844140.370374173,"01135"
165,2,2,3,0,1,0,0.308498281758148,1.19150195539441,845657.933897991,845657.924123779,845982.706000047,845982.698669387,846984.724863296,846984.703360032,848184.809801189,848184.802959241,849186.597504351,849186.57795593,"01135"
166,2,1,2,1,1,0,0.299948779533224,0.923141222505365,850700.392092468,850700.381829547,851016.599542273,851016.592700327,852021.590254331,852021.568262357,852959.091506651,852959.077822756,853960.959847054,853960.939321211,"01135"
167,1,2,2,1,1,1,0.227615220905136,0.795389354530926,855475.726480439,855475.717194939,855719.481126243,855719.474284297,856721.621189708,856721.598709023,857522.831823463,857522.824981516,858524.732418761,858524.712381629,"01135"
168,1,2,2,1,0,0,0.272103030265498,0.54119096444083,860033.998126283,860033.987863364,860322.366668768,860322.357871979,861324.36109649,861324.340081938,861877.145989079,861877.138658421,862878.975721348,862878.955684217,"01135"
169,1,2,3,1,1,0,0.27265625059772,0.728930585328271,864391.698078537,864391.688793037,864680.629615566,864680.622773619,865682.709567634,865682.688064368,866422.830894914,866422.822098125,867424.618109366,867424.597583521,"01135"
170,1,1,2,1,0,0,0.446947534786887,0.561479293886805,868933.323265897,868933.313491687,869396.447856296,869396.441014349,870398.562506812,870398.541003548,870980.491163868,870980.484321922,871982.33018164,871982.309167085,"01135"
171,1,2,2,1,0,0,0.307785741788393,0.720594649610575,873491.472734107,873491.463448606,873815.526920376,873815.519589718,874817.959721455,874817.938218191,875547.497044522,875547.489713866,876549.250049239,876549.229523396,"01135"
172,2,1,3,1,0,0,0.632692727953327,0.442618048095028,878066.361027095,878066.352230303,878715.315357583,878715.308515634,879721.698894683,879721.676414,880178.478556115,880178.471714167,881180.218854355,881180.197839802,"01135"
173,2,2,2,0,1,1,0.340103192516835,0.477545701829513,882691.409103993,882691.400307203,883047.794424888,883047.78709423,884049.867046298,884049.846031744,884537.987226086,884537.977940585,885539.999247387,885539.974323148,"01135"
174,2,1,3,1,1,0,0.424793797203165,0.77611564883955,887049.406192256,887049.396418046,887490.388774123,887490.381932177,888492.524439193,888492.503424641,889277.867130356,889277.859799698,890279.631864123,890279.61133828,"01135"
175,2,2,3,1,0,1,0.556946014898131,0.793919313218794,891791.295674276,891791.286388777,892364.413857682,892364.407015733,893366.45813388,893366.436630614,894170.958767002,894170.951925056,895172.930225329,895172.905301092,"01135"
176,2,2,2,0,0,1,0.274772855957053,0.590195925342414,896683.381544629,896683.371770417,896974.464874174,896974.457054807,897976.468587399,897976.446106713,898575.551473193,898575.544631246,899577.350905411,899577.325981172,"01135"
177,2,2,2,0,1,0,0.464104207079799,0.426766721660897,901091.404998826,901091.394735904,901571.733666439,901571.726824492,902579.595064221,902579.573072245,903020.468174925,903020.461332979,904022.237307088,904022.216781246,"01135"
178,1,2,3,0,1,0,0.288881929307536,0.548658950234312,905532.723813545,905532.714528047,905837.857571177,905837.850729231,906839.851510189,906839.830006925,907400.096080493,907400.089238547,908406.380898064,908406.359883511,"01135"
179,1,1,3,1,1,0,0.356873294767865,0.411618160987928,909923.985962279,909923.97716549,910297.209316192,910297.200519402,911299.360131288,911299.334229628,911721.034737058,911721.02789511,912722.796538562,912722.775524009,"01135"
180,1,2,3,1,0,1,0.568571461273677,0.375926652675844,914231.843792474,914231.834018262,914816.570317384,914816.563475437,915820.202902844,915820.180422159,916210.309739856,916210.302897908,917212.263115892,917212.241612628,"01135"
181,1,2,3,1,0,0,0.574330426303277,1.25495368863085,918723.28182813,918723.271565208,919313.880698916,919313.873856969,920316.135120645,920316.108730277,921580.651167702,921580.644325754,922582.475524155,922582.455487024,"01135"
182,2,1,2,0,0,0,0.435879218430273,1.1058090053848,924099.581126194,924099.571351985,924551.659392212,924551.652061554,925554.401058352,925554.379066378,926674.437164286,926674.429344919,927676.227311004,927676.205807738,"01135"
183,2,2,3,0,0,1,0.0168495141133462,0.415440854847475,929192.148767399,929192.1394819,929225.1787581,929225.17142744,930229.575198136,930229.553206161,930659.184019558,930659.1766889,931665.199557619,931665.179520488,"01135"
184,2,2,3,1,0,0,0.469974109400937,0.62320148051549,933182.590566617,933182.581769826,933668.821391448,933668.8145495,934670.90720804,934670.885704778,935308.220942127,935308.213611471,936310.101500293,936310.08097445,"01135"
185,2,1,3,0,0,0,0.431693901347899,0.552441081121287,937824.380889267,937824.371115057,938272.193200963,938272.185870305,939279.173942346,939279.152439082,939845.841635304,939845.834304646,940848.430335047,940848.409809204,"01135"
186,2,2,3,0,1,0,0.409204419618618,0.447891269741376,942365.900026439,942365.890740938,942791.356763095,942791.349921148,943793.468970058,943793.446978083,944249.416846147,944249.409515489,945256.370219741,945256.349693896,"01135"
187,1,2,2,1,1,1,1.00306885424834,0.494073892365122,946773.785175554,946773.775890052,947793.126872679,947793.120030731,948796.298115388,948796.276123412,949304.65286646,949304.646024512,950306.440080913,950306.419555068,"01135"
188,1,2,3,1,1,0,0.800426005376721,0.573249887293059,951816.20720545,951816.19743124,952632.921692444,952632.914850498,953638.332206856,953638.309726171,954225.909869069,954225.902538411,955227.745465867,955227.725428734,"01135"
189,2,2,2,1,1,1,0.614073833719885,0.391102092429719,956741.866512626,956741.856738415,957372.110560009,957372.103718063,958374.224721814,958374.20224113,958785.671593357,958785.66475141,959787.45978523,959787.439748099,"01135"
190,2,2,2,1,1,1,0.427249567677791,1.29905981505726,961300.078535786,961300.069250284,961743.535947839,961743.528617181,962745.650109641,962745.627140248,964051.37422961,964051.367387662,965058.870071905,965058.849546062,"01135"
191,2,2,3,0,1,1,0.323769508777332,0.874135772892259,966576.238111505,966576.228826005,966916.247719554,966916.240877608,967918.291018331,967918.270003779,968802.439252058,968802.432410112,969804.332027989,969804.311990855,"01135"
192,2,2,3,1,0,1,0.349321739471634,0.621047733155137,971318.177930713,971318.167179082,971683.618569242,971683.611238584,972689.494824801,972689.473810248,973324.920670062,973324.911873274,974326.659990883,974326.638976328,"01135"
193,2,2,3,1,0,1,0.328864316179533,0.819638682920413,975843.028128713,975843.017865792,976188.076342452,976188.069500504,977190.151896125,977190.129904149,978014.462899784,978014.455569126,979017.315014508,979017.294977374,"01135"
194,2,2,3,1,1,1,0.928610382181432,1.05334543997924,980534.900530301,980534.890756089,981479.64007446,981479.633232513,982481.480558362,982481.46100994,983541.25523348,983541.248391531,984543.88840588,984543.866902618,"01135"
195,2,2,3,0,1,1,0.69513771747188,0.685863457514643,986061.513995938,986061.504221726,986772.766214073,986772.758883415,987774.88184201,987774.860827455,988466.573420696,988466.566090038,989469.603426058,989469.582900213,"01135"
196,2,2,3,0,0,0,0.403486017565228,0.746322327391681,990986.963157577,990986.953872079,991406.67363568,991406.666305022,992408.735994168,992408.714490904,993168.977534465,993168.970692519,994170.758395681,994170.737381127,"01135"
197,2,1,2,1,0,0,0.831261685743812,0.671619988765087,995678.779846165,995678.770560663,996526.32659255,996526.319750603,997534.338024467,997534.312122807,998220.151392752,998220.144550806,999222.120896237,999222.099881684,"01135"
198,2,2,3,1,0,0,0.52123055976881,0.72801083208833,1000737.91626531,1000737.90697981,1001275.36835335,1001275.36151141,1002277.46834255,1002277.44537316,1003018.63502168,1003018.62622489,1004020.46377653,1004020.44227327,"01135"
199,2,2,2,1,1,1,0.45531083829519,1.03504225275537,1005529.86192461,1005529.84921814,1006001.51842365,1006001.51158171,1007003.58762409,1007003.56563212,1008050.67146385,1008050.6646219,1009054.92666654,1009054.90662941,"01135"
200,2,2,3,1,1,1,0.72200653436812,0.583698029973675,1010572.29959325,1010572.29030775,1011310.55551239,1011310.54818173,1012320.70114324,1012320.67524158,1012925.59870707,1012925.59186512,1013930.78881303,1013930.76340008,"01135"
1,1,1,2,NA,NA,0,NA,NA,NA,NA,NA,NA,NA,NA,NA,NA,NA,NA,"1834"
2,2,2,2,NA,NA,0,NA,NA,NA,NA,NA,NA,NA,NA,NA,NA,NA,NA,"1834"
3,1,1,2,NA,NA,1,NA,NA,NA,NA,NA,NA,NA,NA,NA,NA,NA,NA,"1834"
4,1,1,2,NA,NA,0,NA,NA,NA,NA,NA,NA,NA,NA,NA,NA,NA,NA,"1834"
5,2,2,2,NA,NA,0,NA,NA,NA,NA,NA,NA,NA,NA,NA,NA,NA,NA,"1834"
6,1,2,3,NA,NA,1,NA,NA,NA,NA,NA,NA,NA,NA,NA,NA,NA,NA,"1834"
7,1,1,3,NA,NA,0,NA,NA,NA,NA,NA,NA,NA,NA,NA,NA,NA,NA,"1834"
8,2,2,3,NA,NA,1,NA,NA,NA,NA,NA,NA,NA,NA,NA,NA,NA,NA,"1834"
9,1,2,2,NA,NA,0,NA,NA,NA,NA,NA,NA,NA,NA,NA,NA,NA,NA,"1834"
10,1,1,2,NA,NA,1,NA,NA,NA,NA,NA,NA,NA,NA,NA,NA,NA,NA,"1834"
11,2,2,3,NA,NA,1,NA,NA,NA,NA,NA,NA,NA,NA,NA,NA,NA,NA,"1834"
12,2,1,2,NA,NA,1,NA,NA,NA,NA,NA,NA,NA,NA,NA,NA,NA,NA,"1834"
13,2,2,3,NA,NA,0,NA,NA,NA,NA,NA,NA,NA,NA,NA,NA,NA,NA,"1834"
14,2,1,3,NA,NA,0,NA,NA,NA,NA,NA,NA,NA,NA,NA,NA,NA,NA,"1834"
15,1,2,2,NA,NA,1,NA,NA,NA,NA,NA,NA,NA,NA,NA,NA,NA,NA,"1834"
16,2,0,2,NA,NA,NA,NA,NA,NA,NA,NA,NA,NA,NA,NA,NA,NA,NA,"1834"
17,2,2,3,NA,NA,0,NA,NA,NA,NA,NA,NA,NA,NA,NA,NA,NA,NA,"1834"
18,1,1,2,NA,NA,1,NA,NA,NA,NA,NA,NA,NA,NA,NA,NA,NA,NA,"1834"
19,1,2,3,NA,NA,0,NA,NA,NA,NA,NA,NA,NA,NA,NA,NA,NA,NA,"1834"
20,2,1,3,NA,NA,0,NA,NA,NA,NA,NA,NA,NA,NA,NA,NA,NA,NA,"1834"
21,2,2,2,NA,NA,1,NA,NA,NA,NA,NA,NA,NA,NA,NA,NA,NA,NA,"1834"
22,1,1,2,NA,NA,0,NA,NA,NA,NA,NA,NA,NA,NA,NA,NA,NA,NA,"1834"
23,2,2,3,NA,NA,0,NA,NA,NA,NA,NA,NA,NA,NA,NA,NA,NA,NA,"1834"
24,1,2,2,NA,NA,0,NA,NA,NA,NA,NA,NA,NA,NA,NA,NA,NA,NA,"1834"
25,1,1,2,NA,NA,1,NA,NA,NA,NA,NA,NA,NA,NA,NA,NA,NA,NA,"1834"
26,1,2,2,NA,NA,0,NA,NA,NA,NA,NA,NA,NA,NA,NA,NA,NA,NA,"1834"
27,2,1,3,NA,NA,0,NA,NA,NA,NA,NA,NA,NA,NA,NA,NA,NA,NA,"1834"
28,2,1,3,NA,NA,1,NA,NA,NA,NA,NA,NA,NA,NA,NA,NA,NA,NA,"1834"
29,2,1,2,NA,NA,1,NA,NA,NA,NA,NA,NA,NA,NA,NA,NA,NA,NA,"1834"
30,1,1,2,NA,NA,0,NA,NA,NA,NA,NA,NA,NA,NA,NA,NA,NA,NA,"1834"
31,2,1,3,NA,NA,1,NA,NA,NA,NA,NA,NA,NA,NA,NA,NA,NA,NA,"1834"
32,1,2,2,NA,NA,0,NA,NA,NA,NA,NA,NA,NA,NA,NA,NA,NA,NA,"1834"
33,1,2,3,NA,NA,0,NA,NA,NA,NA,NA,NA,NA,NA,NA,NA,NA,NA,"1834"
34,2,1,3,NA,NA,0,NA,NA,NA,NA,NA,NA,NA,NA,NA,NA,NA,NA,"1834"
35,2,1,3,NA,NA,1,NA,NA,NA,NA,NA,NA,NA,NA,NA,NA,NA,NA,"1834"
36,2,2,2,NA,NA,1,NA,NA,NA,NA,NA,NA,NA,NA,NA,NA,NA,NA,"1834"
37,2,1,2,NA,NA,0,NA,NA,NA,NA,NA,NA,NA,NA,NA,NA,NA,NA,"1834"
38,2,2,3,NA,NA,1,NA,NA,NA,NA,NA,NA,NA,NA,NA,NA,NA,NA,"1834"
39,1,2,2,NA,NA,1,NA,NA,NA,NA,NA,NA,NA,NA,NA,NA,NA,NA,"1834"
40,2,1,3,NA,NA,0,NA,NA,NA,NA,NA,NA,NA,NA,NA,NA,NA,NA,"1834"
41,1,2,3,NA,NA,0,NA,NA,NA,NA,NA,NA,NA,NA,NA,NA,NA,NA,"1834"
42,1,1,2,NA,NA,1,NA,NA,NA,NA,NA,NA,NA,NA,NA,NA,NA,NA,"1834"
43,1,2,2,NA,NA,0,NA,NA,NA,NA,NA,NA,NA,NA,NA,NA,NA,NA,"1834"
44,1,1,2,NA,NA,0,NA,NA,NA,NA,NA,NA,NA,NA,NA,NA,NA,NA,"1834"
45,2,1,3,NA,NA,0,NA,NA,NA,NA,NA,NA,NA,NA,NA,NA,NA,NA,"1834"
46,1,1,2,NA,NA,1,NA,NA,NA,NA,NA,NA,NA,NA,NA,NA,NA,NA,"1834"
47,1,1,3,NA,NA,1,NA,NA,NA,NA,NA,NA,NA,NA,NA,NA,NA,NA,"1834"
48,1,1,3,NA,NA,1,NA,NA,NA,NA,NA,NA,NA,NA,NA,NA,NA,NA,"1834"
49,1,2,2,NA,NA,1,NA,NA,NA,NA,NA,NA,NA,NA,NA,NA,NA,NA,"1834"
50,2,1,3,NA,NA,0,NA,NA,NA,NA,NA,NA,NA,NA,NA,NA,NA,NA,"1834"
51,2,1,2,NA,NA,1,NA,NA,NA,NA,NA,NA,NA,NA,NA,NA,NA,NA,"1834"
52,2,2,3,NA,NA,0,NA,NA,NA,NA,NA,NA,NA,NA,NA,NA,NA,NA,"1834"
53,1,1,2,NA,NA,0,NA,NA,NA,NA,NA,NA,NA,NA,NA,NA,NA,NA,"1834"
54,2,1,3,NA,NA,1,NA,NA,NA,NA,NA,NA,NA,NA,NA,NA,NA,NA,"1834"
55,2,1,2,NA,NA,1,NA,NA,NA,NA,NA,NA,NA,NA,NA,NA,NA,NA,"1834"
56,1,1,2,NA,NA,0,NA,NA,NA,NA,NA,NA,NA,NA,NA,NA,NA,NA,"1834"
57,1,1,2,NA,NA,0,NA,NA,NA,NA,NA,NA,NA,NA,NA,NA,NA,NA,"1834"
58,2,1,3,NA,NA,1,NA,NA,NA,NA,NA,NA,NA,NA,NA,NA,NA,NA,"1834"
59,2,2,3,NA,NA,0,NA,NA,NA,NA,NA,NA,NA,NA,NA,NA,NA,NA,"1834"
60,1,1,3,NA,NA,1,NA,NA,NA,NA,NA,NA,NA,NA,NA,NA,NA,NA,"1834"
61,2,1,2,NA,NA,1,NA,NA,NA,NA,NA,NA,NA,NA,NA,NA,NA,NA,"1834"
62,1,1,3,NA,NA,0,NA,NA,NA,NA,NA,NA,NA,NA,NA,NA,NA,NA,"1834"
63,1,1,2,NA,NA,1,NA,NA,NA,NA,NA,NA,NA,NA,NA,NA,NA,NA,"1834"
64,1,1,3,NA,NA,0,NA,NA,NA,NA,NA,NA,NA,NA,NA,NA,NA,NA,"1834"
65,2,2,3,NA,NA,1,NA,NA,NA,NA,NA,NA,NA,NA,NA,NA,NA,NA,"1834"
66,2,2,3,NA,NA,0,NA,NA,NA,NA,NA,NA,NA,NA,NA,NA,NA,NA,"1834"
67,2,2,3,NA,NA,1,NA,NA,NA,NA,NA,NA,NA,NA,NA,NA,NA,NA,"1834"
68,2,2,3,NA,NA,1,NA,NA,NA,NA,NA,NA,NA,NA,NA,NA,NA,NA,"1834"
69,2,2,3,NA,NA,1,NA,NA,NA,NA,NA,NA,NA,NA,NA,NA,NA,NA,"1834"
70,2,2,3,NA,NA,1,NA,NA,NA,NA,NA,NA,NA,NA,NA,NA,NA,NA,"1834"
71,2,2,3,NA,NA,1,NA,NA,NA,NA,NA,NA,NA,NA,NA,NA,NA,NA,"1834"
72,2,1,2,NA,NA,0,NA,NA,NA,NA,NA,NA,NA,NA,NA,NA,NA,NA,"1834"
73,2,2,3,NA,NA,0,NA,NA,NA,NA,NA,NA,NA,NA,NA,NA,NA,NA,"1834"
74,2,2,2,NA,NA,1,NA,NA,NA,NA,NA,NA,NA,NA,NA,NA,NA,NA,"1834"
75,2,2,3,NA,NA,0,NA,NA,NA,NA,NA,NA,NA,NA,NA,NA,NA,NA,"1834"
76,2,2,2,NA,NA,1,NA,NA,NA,NA,NA,NA,NA,NA,NA,NA,NA,NA,"1834"
77,2,2,3,NA,NA,0,NA,NA,NA,NA,NA,NA,NA,NA,NA,NA,NA,NA,"1834"
78,2,1,3,NA,NA,0,NA,NA,NA,NA,NA,NA,NA,NA,NA,NA,NA,NA,"1834"
79,1,2,2,NA,NA,1,NA,NA,NA,NA,NA,NA,NA,NA,NA,NA,NA,NA,"1834"
80,1,2,2,NA,NA,1,NA,NA,NA,NA,NA,NA,NA,NA,NA,NA,NA,NA,"1834"
81,2,1,3,NA,NA,0,NA,NA,NA,NA,NA,NA,NA,NA,NA,NA,NA,NA,"1834"
82,2,1,3,NA,NA,0,NA,NA,NA,NA,NA,NA,NA,NA,NA,NA,NA,NA,"1834"
83,2,2,2,NA,NA,0,NA,NA,NA,NA,NA,NA,NA,NA,NA,NA,NA,NA,"1834"
84,2,2,3,NA,NA,0,NA,NA,NA,NA,NA,NA,NA,NA,NA,NA,NA,NA,"1834"
85,2,2,2,NA,NA,0,NA,NA,NA,NA,NA,NA,NA,NA,NA,NA,NA,NA,"1834"
86,1,1,2,NA,NA,0,NA,NA,NA,NA,NA,NA,NA,NA,NA,NA,NA,NA,"1834"
87,1,1,2,NA,NA,0,NA,NA,NA,NA,NA,NA,NA,NA,NA,NA,NA,NA,"1834"
88,2,2,2,NA,NA,1,NA,NA,NA,NA,NA,NA,NA,NA,NA,NA,NA,NA,"1834"
89,2,2,3,NA,NA,1,NA,NA,NA,NA,NA,NA,NA,NA,NA,NA,NA,NA,"1834"
90,2,2,3,NA,NA,0,NA,NA,NA,NA,NA,NA,NA,NA,NA,NA,NA,NA,"1834"
91,2,2,2,NA,NA,1,NA,NA,NA,NA,NA,NA,NA,NA,NA,NA,NA,NA,"1834"
92,2,2,3,NA,NA,0,NA,NA,NA,NA,NA,NA,NA,NA,NA,NA,NA,NA,"1834"
93,2,2,2,NA,NA,0,NA,NA,NA,NA,NA,NA,NA,NA,NA,NA,NA,NA,"1834"
94,2,2,3,NA,NA,1,NA,NA,NA,NA,NA,NA,NA,NA,NA,NA,NA,NA,"1834"
95,2,2,2,NA,NA,1,NA,NA,NA,NA,NA,NA,NA,NA,NA,NA,NA,NA,"1834"
96,2,2,2,NA,NA,1,NA,NA,NA,NA,NA,NA,NA,NA,NA,NA,NA,NA,"1834"
97,2,2,3,NA,NA,0,NA,NA,NA,NA,NA,NA,NA,NA,NA,NA,NA,NA,"1834"
98,2,2,3,NA,NA,0,NA,NA,NA,NA,NA,NA,NA,NA,NA,NA,NA,NA,"1834"
99,2,2,2,NA,NA,0,NA,NA,NA,NA,NA,NA,NA,NA,NA,NA,NA,NA,"1834"
100,2,2,3,NA,NA,1,NA,NA,NA,NA,NA,NA,NA,NA,NA,NA,NA,NA,"1834"
101,2,1,3,NA,NA,0,NA,NA,NA,NA,NA,NA,NA,NA,NA,NA,NA,NA,"1834"
102,1,1,2,NA,NA,0,NA,NA,NA,NA,NA,NA,NA,NA,NA,NA,NA,NA,"1834"
103,1,2,2,NA,NA,1,NA,NA,NA,NA,NA,NA,NA,NA,NA,NA,NA,NA,"1834"
104,2,1,3,NA,NA,1,NA,NA,NA,NA,NA,NA,NA,NA,NA,NA,NA,NA,"1834"
105,2,2,2,NA,NA,1,NA,NA,NA,NA,NA,NA,NA,NA,NA,NA,NA,NA,"1834"
106,1,2,2,NA,NA,1,NA,NA,NA,NA,NA,NA,NA,NA,NA,NA,NA,NA,"1834"
107,1,1,3,NA,NA,0,NA,NA,NA,NA,NA,NA,NA,NA,NA,NA,NA,NA,"1834"
108,2,2,3,NA,NA,0,NA,NA,NA,NA,NA,NA,NA,NA,NA,NA,NA,NA,"1834"
109,2,2,3,NA,NA,0,NA,NA,NA,NA,NA,NA,NA,NA,NA,NA,NA,NA,"1834"
110,2,2,2,NA,NA,0,NA,NA,NA,NA,NA,NA,NA,NA,NA,NA,NA,NA,"1834"
111,2,2,2,NA,NA,0,NA,NA,NA,NA,NA,NA,NA,NA,NA,NA,NA,NA,"1834"
112,2,2,3,NA,NA,0,NA,NA,NA,NA,NA,NA,NA,NA,NA,NA,NA,NA,"1834"
113,2,1,3,NA,NA,0,NA,NA,NA,NA,NA,NA,NA,NA,NA,NA,NA,NA,"1834"
114,1,1,2,NA,NA,0,NA,NA,NA,NA,NA,NA,NA,NA,NA,NA,NA,NA,"1834"
115,1,1,2,NA,NA,0,NA,NA,NA,NA,NA,NA,NA,NA,NA,NA,NA,NA,"1834"
116,1,1,3,NA,NA,0,NA,NA,NA,NA,NA,NA,NA,NA,NA,NA,NA,NA,"1834"
117,2,2,3,NA,NA,1,NA,NA,NA,NA,NA,NA,NA,NA,NA,NA,NA,NA,"1834"
118,2,2,3,NA,NA,0,NA,NA,NA,NA,NA,NA,NA,NA,NA,NA,NA,NA,"1834"
119,2,2,3,NA,NA,1,NA,NA,NA,NA,NA,NA,NA,NA,NA,NA,NA,NA,"1834"
120,2,2,2,NA,NA,0,NA,NA,NA,NA,NA,NA,NA,NA,NA,NA,NA,NA,"1834"
121,2,2,2,NA,NA,1,NA,NA,NA,NA,NA,NA,NA,NA,NA,NA,NA,NA,"1834"
122,2,2,3,NA,NA,1,NA,NA,NA,NA,NA,NA,NA,NA,NA,NA,NA,NA,"1834"
123,2,2,3,NA,NA,1,NA,NA,NA,NA,NA,NA,NA,NA,NA,NA,NA,NA,"1834"
124,2,2,2,NA,NA,1,NA,NA,NA,NA,NA,NA,NA,NA,NA,NA,NA,NA,"1834"
125,2,2,3,NA,NA,0,NA,NA,NA,NA,NA,NA,NA,NA,NA,NA,NA,NA,"1834"
126,1,2,3,NA,NA,1,NA,NA,NA,NA,NA,NA,NA,NA,NA,NA,NA,NA,"1834"
127,1,2,3,NA,NA,0,NA,NA,NA,NA,NA,NA,NA,NA,NA,NA,NA,NA,"1834"
128,1,1,2,NA,NA,0,NA,NA,NA,NA,NA,NA,NA,NA,NA,NA,NA,NA,"1834"
129,1,2,3,NA,NA,1,NA,NA,NA,NA,NA,NA,NA,NA,NA,NA,NA,NA,"1834"
130,2,2,3,NA,NA,1,NA,NA,NA,NA,NA,NA,NA,NA,NA,NA,NA,NA,"1834"
131,2,2,3,NA,NA,1,NA,NA,NA,NA,NA,NA,NA,NA,NA,NA,NA,NA,"1834"
132,2,2,3,NA,NA,0,NA,NA,NA,NA,NA,NA,NA,NA,NA,NA,NA,NA,"1834"
133,2,2,3,NA,NA,0,NA,NA,NA,NA,NA,NA,NA,NA,NA,NA,NA,NA,"1834"
134,2,2,2,NA,NA,0,NA,NA,NA,NA,NA,NA,NA,NA,NA,NA,NA,NA,"1834"
135,2,2,3,NA,NA,0,NA,NA,NA,NA,NA,NA,NA,NA,NA,NA,NA,NA,"1834"
136,2,2,3,NA,NA,0,NA,NA,NA,NA,NA,NA,NA,NA,NA,NA,NA,NA,"1834"
137,2,2,3,NA,NA,0,NA,NA,NA,NA,NA,NA,NA,NA,NA,NA,NA,NA,"1834"
138,2,2,3,NA,NA,0,NA,NA,NA,NA,NA,NA,NA,NA,NA,NA,NA,NA,"1834"
139,1,2,2,NA,NA,1,NA,NA,NA,NA,NA,NA,NA,NA,NA,NA,NA,NA,"1834"
140,2,1,3,NA,NA,1,NA,NA,NA,NA,NA,NA,NA,NA,NA,NA,NA,NA,"1834"
141,1,2,2,NA,NA,1,NA,NA,NA,NA,NA,NA,NA,NA,NA,NA,NA,NA,"1834"
142,1,2,2,NA,NA,1,NA,NA,NA,NA,NA,NA,NA,NA,NA,NA,NA,NA,"1834"
143,1,2,2,NA,NA,0,NA,NA,NA,NA,NA,NA,NA,NA,NA,NA,NA,NA,"1834"
144,1,2,2,NA,NA,0,NA,NA,NA,NA,NA,NA,NA,NA,NA,NA,NA,NA,"1834"
145,1,2,2,NA,NA,0,NA,NA,NA,NA,NA,NA,NA,NA,NA,NA,NA,NA,"1834"
146,1,1,3,NA,NA,0,NA,NA,NA,NA,NA,NA,NA,NA,NA,NA,NA,NA,"1834"
147,1,2,2,NA,NA,1,NA,NA,NA,NA,NA,NA,NA,NA,NA,NA,NA,NA,"1834"
148,2,2,3,NA,NA,0,NA,NA,NA,NA,NA,NA,NA,NA,NA,NA,NA,NA,"1834"
149,2,2,3,NA,NA,1,NA,NA,NA,NA,NA,NA,NA,NA,NA,NA,NA,NA,"1834"
150,2,2,3,NA,NA,0,NA,NA,NA,NA,NA,NA,NA,NA,NA,NA,NA,NA,"1834"
151,2,2,3,NA,NA,0,NA,NA,NA,NA,NA,NA,NA,NA,NA,NA,NA,NA,"1834"
152,2,2,3,NA,NA,0,NA,NA,NA,NA,NA,NA,NA,NA,NA,NA,NA,NA,"1834"
153,2,2,3,NA,NA,1,NA,NA,NA,NA,NA,NA,NA,NA,NA,NA,NA,NA,"1834"
154,2,2,2,NA,NA,0,NA,NA,NA,NA,NA,NA,NA,NA,NA,NA,NA,NA,"1834"
155,2,1,3,NA,NA,0,NA,NA,NA,NA,NA,NA,NA,NA,NA,NA,NA,NA,"1834"
156,1,1,2,NA,NA,0,NA,NA,NA,NA,NA,NA,NA,NA,NA,NA,NA,NA,"1834"
157,1,1,2,NA,NA,0,NA,NA,NA,NA,NA,NA,NA,NA,NA,NA,NA,NA,"1834"
158,1,1,3,NA,NA,1,NA,NA,NA,NA,NA,NA,NA,NA,NA,NA,NA,NA,"1834"
159,1,1,2,NA,NA,0,NA,NA,NA,NA,NA,NA,NA,NA,NA,NA,NA,NA,"1834"
160,1,1,2,NA,NA,0,NA,NA,NA,NA,NA,NA,NA,NA,NA,NA,NA,NA,"1834"
161,1,1,3,NA,NA,1,NA,NA,NA,NA,NA,NA,NA,NA,NA,NA,NA,NA,"1834"
162,1,1,2,NA,NA,1,NA,NA,NA,NA,NA,NA,NA,NA,NA,NA,NA,NA,"1834"
163,1,1,2,NA,NA,0,NA,NA,NA,NA,NA,NA,NA,NA,NA,NA,NA,NA,"1834"
164,1,1,3,NA,NA,1,NA,NA,NA,NA,NA,NA,NA,NA,NA,NA,NA,NA,"1834"
165,1,1,3,NA,NA,0,NA,NA,NA,NA,NA,NA,NA,NA,NA,NA,NA,NA,"1834"
166,1,1,2,NA,NA,1,NA,NA,NA,NA,NA,NA,NA,NA,NA,NA,NA,NA,"1834"
167,1,1,2,NA,NA,1,NA,NA,NA,NA,NA,NA,NA,NA,NA,NA,NA,NA,"1834"
168,1,1,2,NA,NA,0,NA,NA,NA,NA,NA,NA,NA,NA,NA,NA,NA,NA,"1834"
169,1,1,2,NA,NA,0,NA,NA,NA,NA,NA,NA,NA,NA,NA,NA,NA,NA,"1834"
170,1,1,2,NA,NA,1,NA,NA,NA,NA,NA,NA,NA,NA,NA,NA,NA,NA,"1834"
171,1,1,2,NA,NA,0,NA,NA,NA,NA,NA,NA,NA,NA,NA,NA,NA,NA,"1834"
172,1,0,2,NA,NA,NA,NA,NA,NA,NA,NA,NA,NA,NA,NA,NA,NA,NA,"1834"
173,1,1,2,NA,NA,1,NA,NA,NA,NA,NA,NA,NA,NA,NA,NA,NA,NA,"1834"
174,2,1,3,NA,NA,1,NA,NA,NA,NA,NA,NA,NA,NA,NA,NA,NA,NA,"1834"
175,2,1,3,NA,NA,1,NA,NA,NA,NA,NA,NA,NA,NA,NA,NA,NA,NA,"1834"
176,2,1,3,NA,NA,0,NA,NA,NA,NA,NA,NA,NA,NA,NA,NA,NA,NA,"1834"
177,2,1,3,NA,NA,1,NA,NA,NA,NA,NA,NA,NA,NA,NA,NA,NA,NA,"1834"
178,2,1,3,NA,NA,0,NA,NA,NA,NA,NA,NA,NA,NA,NA,NA,NA,NA,"1834"
179,2,1,3,NA,NA,0,NA,NA,NA,NA,NA,NA,NA,NA,NA,NA,NA,NA,"1834"
180,2,1,3,NA,NA,1,NA,NA,NA,NA,NA,NA,NA,NA,NA,NA,NA,NA,"1834"
181,2,1,3,NA,NA,1,NA,NA,NA,NA,NA,NA,NA,NA,NA,NA,NA,NA,"1834"
182,2,1,3,NA,NA,0,NA,NA,NA,NA,NA,NA,NA,NA,NA,NA,NA,NA,"1834"
183,2,1,3,NA,NA,0,NA,NA,NA,NA,NA,NA,NA,NA,NA,NA,NA,NA,"1834"
184,2,1,3,NA,NA,1,NA,NA,NA,NA,NA,NA,NA,NA,NA,NA,NA,NA,"1834"
185,2,1,2,NA,NA,0,NA,NA,NA,NA,NA,NA,NA,NA,NA,NA,NA,NA,"1834"
186,1,1,3,NA,NA,0,NA,NA,NA,NA,NA,NA,NA,NA,NA,NA,NA,NA,"1834"
187,1,2,2,NA,NA,0,NA,NA,NA,NA,NA,NA,NA,NA,NA,NA,NA,NA,"1834"
188,2,1,3,NA,NA,0,NA,NA,NA,NA,NA,NA,NA,NA,NA,NA,NA,NA,"1834"
189,2,1,3,NA,NA,0,NA,NA,NA,NA,NA,NA,NA,NA,NA,NA,NA,NA,"1834"
190,2,1,3,NA,NA,1,NA,NA,NA,NA,NA,NA,NA,NA,NA,NA,NA,NA,"1834"
191,2,1,3,NA,NA,1,NA,NA,NA,NA,NA,NA,NA,NA,NA,NA,NA,NA,"1834"
192,2,1,3,NA,NA,1,NA,NA,NA,NA,NA,NA,NA,NA,NA,NA,NA,NA,"1834"
193,2,1,3,NA,NA,0,NA,NA,NA,NA,NA,NA,NA,NA,NA,NA,NA,NA,"1834"
194,2,1,3,NA,NA,0,NA,NA,NA,NA,NA,NA,NA,NA,NA,NA,NA,NA,"1834"
195,2,1,2,NA,NA,0,NA,NA,NA,NA,NA,NA,NA,NA,NA,NA,NA,NA,"1834"
196,2,1,3,NA,NA,1,NA,NA,NA,NA,NA,NA,NA,NA,NA,NA,NA,NA,"1834"
197,2,2,2,NA,NA,0,NA,NA,NA,NA,NA,NA,NA,NA,NA,NA,NA,NA,"1834"
198,2,1,2,NA,NA,1,NA,NA,NA,NA,NA,NA,NA,NA,NA,NA,NA,NA,"1834"
199,2,1,3,NA,NA,1,NA,NA,NA,NA,NA,NA,NA,NA,NA,NA,NA,NA,"1834"
200,2,1,3,NA,NA,0,NA,NA,NA,NA,NA,NA,NA,NA,NA,NA,NA,NA,"1834"
1,NA,NA,NA,NA,NA,NA,NA,NA,NA,NA,NA,NA,NA,NA,NA,NA,NA,NA,"1895"
2,NA,NA,NA,NA,NA,NA,NA,NA,NA,NA,NA,NA,NA,NA,NA,NA,NA,NA,"1895"
3,NA,NA,NA,NA,NA,NA,NA,NA,NA,NA,NA,NA,NA,NA,NA,NA,NA,NA,"1895"
4,NA,NA,NA,NA,NA,NA,NA,NA,NA,NA,NA,NA,NA,NA,NA,NA,NA,NA,"1895"
5,NA,NA,NA,NA,NA,NA,NA,NA,NA,NA,NA,NA,NA,NA,NA,NA,NA,NA,"1895"
6,NA,NA,NA,NA,NA,NA,NA,NA,NA,NA,NA,NA,NA,NA,NA,NA,NA,NA,"1895"
7,NA,NA,NA,NA,NA,NA,NA,NA,NA,NA,NA,NA,NA,NA,NA,NA,NA,NA,"1895"
8,NA,NA,NA,NA,NA,NA,NA,NA,NA,NA,NA,NA,NA,NA,NA,NA,NA,NA,"1895"
9,NA,NA,NA,NA,NA,NA,NA,NA,NA,NA,NA,NA,NA,NA,NA,NA,NA,NA,"1895"
10,NA,NA,NA,NA,NA,NA,NA,NA,NA,NA,NA,NA,NA,NA,NA,NA,NA,NA,"1895"
11,NA,NA,NA,NA,NA,NA,NA,NA,NA,NA,NA,NA,NA,NA,NA,NA,NA,NA,"1895"
12,NA,NA,NA,NA,NA,NA,NA,NA,NA,NA,NA,NA,NA,NA,NA,NA,NA,NA,"1895"
13,NA,NA,NA,NA,NA,NA,NA,NA,NA,NA,NA,NA,NA,NA,NA,NA,NA,NA,"1895"
14,NA,NA,NA,NA,NA,NA,NA,NA,NA,NA,NA,NA,NA,NA,NA,NA,NA,NA,"1895"
15,NA,NA,NA,NA,NA,NA,NA,NA,NA,NA,NA,NA,NA,NA,NA,NA,NA,NA,"1895"
16,NA,NA,NA,NA,NA,NA,NA,NA,NA,NA,NA,NA,NA,NA,NA,NA,NA,NA,"1895"
17,NA,NA,NA,NA,NA,NA,NA,NA,NA,NA,NA,NA,NA,NA,NA,NA,NA,NA,"1895"
18,NA,NA,NA,NA,NA,NA,NA,NA,NA,NA,NA,NA,NA,NA,NA,NA,NA,NA,"1895"
19,NA,NA,NA,NA,NA,NA,NA,NA,NA,NA,NA,NA,NA,NA,NA,NA,NA,NA,"1895"
20,NA,NA,NA,NA,NA,NA,NA,NA,NA,NA,NA,NA,NA,NA,NA,NA,NA,NA,"1895"
21,NA,NA,NA,NA,NA,NA,NA,NA,NA,NA,NA,NA,NA,NA,NA,NA,NA,NA,"1895"
22,NA,NA,NA,NA,NA,NA,NA,NA,NA,NA,NA,NA,NA,NA,NA,NA,NA,NA,"1895"
23,NA,NA,NA,NA,NA,NA,NA,NA,NA,NA,NA,NA,NA,NA,NA,NA,NA,NA,"1895"
24,NA,NA,NA,NA,NA,NA,NA,NA,NA,NA,NA,NA,NA,NA,NA,NA,NA,NA,"1895"
25,NA,NA,NA,NA,NA,NA,NA,NA,NA,NA,NA,NA,NA,NA,NA,NA,NA,NA,"1895"
26,NA,NA,NA,NA,NA,NA,NA,NA,NA,NA,NA,NA,NA,NA,NA,NA,NA,NA,"1895"
27,NA,NA,NA,NA,NA,NA,NA,NA,NA,NA,NA,NA,NA,NA,NA,NA,NA,NA,"1895"
28,NA,NA,NA,NA,NA,NA,NA,NA,NA,NA,NA,NA,NA,NA,NA,NA,NA,NA,"1895"
29,NA,NA,NA,NA,NA,NA,NA,NA,NA,NA,NA,NA,NA,NA,NA,NA,NA,NA,"1895"
30,NA,NA,NA,NA,NA,NA,NA,NA,NA,NA,NA,NA,NA,NA,NA,NA,NA,NA,"1895"
31,NA,NA,NA,NA,NA,NA,NA,NA,NA,NA,NA,NA,NA,NA,NA,NA,NA,NA,"1895"
32,NA,NA,NA,NA,NA,NA,NA,NA,NA,NA,NA,NA,NA,NA,NA,NA,NA,NA,"1895"
33,NA,NA,NA,NA,NA,NA,NA,NA,NA,NA,NA,NA,NA,NA,NA,NA,NA,NA,"1895"
34,NA,NA,NA,NA,NA,NA,NA,NA,NA,NA,NA,NA,NA,NA,NA,NA,NA,NA,"1895"
35,NA,NA,NA,NA,NA,NA,NA,NA,NA,NA,NA,NA,NA,NA,NA,NA,NA,NA,"1895"
36,NA,NA,NA,NA,NA,NA,NA,NA,NA,NA,NA,NA,NA,NA,NA,NA,NA,NA,"1895"
37,NA,NA,NA,NA,NA,NA,NA,NA,NA,NA,NA,NA,NA,NA,NA,NA,NA,NA,"1895"
38,NA,NA,NA,NA,NA,NA,NA,NA,NA,NA,NA,NA,NA,NA,NA,NA,NA,NA,"1895"
39,NA,NA,NA,NA,NA,NA,NA,NA,NA,NA,NA,NA,NA,NA,NA,NA,NA,NA,"1895"
40,NA,NA,NA,NA,NA,NA,NA,NA,NA,NA,NA,NA,NA,NA,NA,NA,NA,NA,"1895"
41,NA,NA,NA,NA,NA,NA,NA,NA,NA,NA,NA,NA,NA,NA,NA,NA,NA,NA,"1895"
42,NA,NA,NA,NA,NA,NA,NA,NA,NA,NA,NA,NA,NA,NA,NA,NA,NA,NA,"1895"
43,NA,NA,NA,NA,NA,NA,NA,NA,NA,NA,NA,NA,NA,NA,NA,NA,NA,NA,"1895"
44,NA,NA,NA,NA,NA,NA,NA,NA,NA,NA,NA,NA,NA,NA,NA,NA,NA,NA,"1895"
45,NA,NA,NA,NA,NA,NA,NA,NA,NA,NA,NA,NA,NA,NA,NA,NA,NA,NA,"1895"
46,NA,NA,NA,NA,NA,NA,NA,NA,NA,NA,NA,NA,NA,NA,NA,NA,NA,NA,"1895"
47,NA,NA,NA,NA,NA,NA,NA,NA,NA,NA,NA,NA,NA,NA,NA,NA,NA,NA,"1895"
48,NA,NA,NA,NA,NA,NA,NA,NA,NA,NA,NA,NA,NA,NA,NA,NA,NA,NA,"1895"
49,NA,NA,NA,NA,NA,NA,NA,NA,NA,NA,NA,NA,NA,NA,NA,NA,NA,NA,"1895"
50,NA,NA,NA,NA,NA,NA,NA,NA,NA,NA,NA,NA,NA,NA,NA,NA,NA,NA,"1895"
51,NA,NA,NA,NA,NA,NA,NA,NA,NA,NA,NA,NA,NA,NA,NA,NA,NA,NA,"1895"
52,NA,NA,NA,NA,NA,NA,NA,NA,NA,NA,NA,NA,NA,NA,NA,NA,NA,NA,"1895"
53,NA,NA,NA,NA,NA,NA,NA,NA,NA,NA,NA,NA,NA,NA,NA,NA,NA,NA,"1895"
54,NA,NA,NA,NA,NA,NA,NA,NA,NA,NA,NA,NA,NA,NA,NA,NA,NA,NA,"1895"
55,NA,NA,NA,NA,NA,NA,NA,NA,NA,NA,NA,NA,NA,NA,NA,NA,NA,NA,"1895"
56,NA,NA,NA,NA,NA,NA,NA,NA,NA,NA,NA,NA,NA,NA,NA,NA,NA,NA,"1895"
57,NA,NA,NA,NA,NA,NA,NA,NA,NA,NA,NA,NA,NA,NA,NA,NA,NA,NA,"1895"
58,NA,NA,NA,NA,NA,NA,NA,NA,NA,NA,NA,NA,NA,NA,NA,NA,NA,NA,"1895"
59,NA,NA,NA,NA,NA,NA,NA,NA,NA,NA,NA,NA,NA,NA,NA,NA,NA,NA,"1895"
60,NA,NA,NA,NA,NA,NA,NA,NA,NA,NA,NA,NA,NA,NA,NA,NA,NA,NA,"1895"
61,NA,NA,NA,NA,NA,NA,NA,NA,NA,NA,NA,NA,NA,NA,NA,NA,NA,NA,"1895"
62,NA,NA,NA,NA,NA,NA,NA,NA,NA,NA,NA,NA,NA,NA,NA,NA,NA,NA,"1895"
63,NA,NA,NA,NA,NA,NA,NA,NA,NA,NA,NA,NA,NA,NA,NA,NA,NA,NA,"1895"
64,NA,NA,NA,NA,NA,NA,NA,NA,NA,NA,NA,NA,NA,NA,NA,NA,NA,NA,"1895"
65,NA,NA,NA,NA,NA,NA,NA,NA,NA,NA,NA,NA,NA,NA,NA,NA,NA,NA,"1895"
66,NA,NA,NA,NA,NA,NA,NA,NA,NA,NA,NA,NA,NA,NA,NA,NA,NA,NA,"1895"
67,NA,NA,NA,NA,NA,NA,NA,NA,NA,NA,NA,NA,NA,NA,NA,NA,NA,NA,"1895"
68,NA,NA,NA,NA,NA,NA,NA,NA,NA,NA,NA,NA,NA,NA,NA,NA,NA,NA,"1895"
69,NA,NA,NA,NA,NA,NA,NA,NA,NA,NA,NA,NA,NA,NA,NA,NA,NA,NA,"1895"
70,NA,NA,NA,NA,NA,NA,NA,NA,NA,NA,NA,NA,NA,NA,NA,NA,NA,NA,"1895"
71,NA,NA,NA,NA,NA,NA,NA,NA,NA,NA,NA,NA,NA,NA,NA,NA,NA,NA,"1895"
72,NA,NA,NA,NA,NA,NA,NA,NA,NA,NA,NA,NA,NA,NA,NA,NA,NA,NA,"1895"
73,NA,NA,NA,NA,NA,NA,NA,NA,NA,NA,NA,NA,NA,NA,NA,NA,NA,NA,"1895"
74,NA,NA,NA,NA,NA,NA,NA,NA,NA,NA,NA,NA,NA,NA,NA,NA,NA,NA,"1895"
75,NA,NA,NA,NA,NA,NA,NA,NA,NA,NA,NA,NA,NA,NA,NA,NA,NA,NA,"1895"
76,NA,NA,NA,NA,NA,NA,NA,NA,NA,NA,NA,NA,NA,NA,NA,NA,NA,NA,"1895"
77,NA,NA,NA,NA,NA,NA,NA,NA,NA,NA,NA,NA,NA,NA,NA,NA,NA,NA,"1895"
78,NA,NA,NA,NA,NA,NA,NA,NA,NA,NA,NA,NA,NA,NA,NA,NA,NA,NA,"1895"
79,NA,NA,NA,NA,NA,NA,NA,NA,NA,NA,NA,NA,NA,NA,NA,NA,NA,NA,"1895"
80,NA,NA,NA,NA,NA,NA,NA,NA,NA,NA,NA,NA,NA,NA,NA,NA,NA,NA,"1895"
81,NA,NA,NA,NA,NA,NA,NA,NA,NA,NA,NA,NA,NA,NA,NA,NA,NA,NA,"1895"
82,NA,NA,NA,NA,NA,NA,NA,NA,NA,NA,NA,NA,NA,NA,NA,NA,NA,NA,"1895"
83,NA,NA,NA,NA,NA,NA,NA,NA,NA,NA,NA,NA,NA,NA,NA,NA,NA,NA,"1895"
84,NA,NA,NA,NA,NA,NA,NA,NA,NA,NA,NA,NA,NA,NA,NA,NA,NA,NA,"1895"
85,NA,NA,NA,NA,NA,NA,NA,NA,NA,NA,NA,NA,NA,NA,NA,NA,NA,NA,"1895"
86,NA,NA,NA,NA,NA,NA,NA,NA,NA,NA,NA,NA,NA,NA,NA,NA,NA,NA,"1895"
87,NA,NA,NA,NA,NA,NA,NA,NA,NA,NA,NA,NA,NA,NA,NA,NA,NA,NA,"1895"
88,NA,NA,NA,NA,NA,NA,NA,NA,NA,NA,NA,NA,NA,NA,NA,NA,NA,NA,"1895"
89,NA,NA,NA,NA,NA,NA,NA,NA,NA,NA,NA,NA,NA,NA,NA,NA,NA,NA,"1895"
90,NA,NA,NA,NA,NA,NA,NA,NA,NA,NA,NA,NA,NA,NA,NA,NA,NA,NA,"1895"
91,NA,NA,NA,NA,NA,NA,NA,NA,NA,NA,NA,NA,NA,NA,NA,NA,NA,NA,"1895"
92,NA,NA,NA,NA,NA,NA,NA,NA,NA,NA,NA,NA,NA,NA,NA,NA,NA,NA,"1895"
93,NA,NA,NA,NA,NA,NA,NA,NA,NA,NA,NA,NA,NA,NA,NA,NA,NA,NA,"1895"
94,NA,NA,NA,NA,NA,NA,NA,NA,NA,NA,NA,NA,NA,NA,NA,NA,NA,NA,"1895"
95,NA,NA,NA,NA,NA,NA,NA,NA,NA,NA,NA,NA,NA,NA,NA,NA,NA,NA,"1895"
96,NA,NA,NA,NA,NA,NA,NA,NA,NA,NA,NA,NA,NA,NA,NA,NA,NA,NA,"1895"
97,NA,NA,NA,NA,NA,NA,NA,NA,NA,NA,NA,NA,NA,NA,NA,NA,NA,NA,"1895"
98,NA,NA,NA,NA,NA,NA,NA,NA,NA,NA,NA,NA,NA,NA,NA,NA,NA,NA,"1895"
99,NA,NA,NA,NA,NA,NA,NA,NA,NA,NA,NA,NA,NA,NA,NA,NA,NA,NA,"1895"
100,NA,NA,NA,NA,NA,NA,NA,NA,NA,NA,NA,NA,NA,NA,NA,NA,NA,NA,"1895"
101,NA,NA,NA,NA,NA,NA,NA,NA,NA,NA,NA,NA,NA,NA,NA,NA,NA,NA,"1895"
102,NA,NA,NA,NA,NA,NA,NA,NA,NA,NA,NA,NA,NA,NA,NA,NA,NA,NA,"1895"
103,NA,NA,NA,NA,NA,NA,NA,NA,NA,NA,NA,NA,NA,NA,NA,NA,NA,NA,"1895"
104,NA,NA,NA,NA,NA,NA,NA,NA,NA,NA,NA,NA,NA,NA,NA,NA,NA,NA,"1895"
105,NA,NA,NA,NA,NA,NA,NA,NA,NA,NA,NA,NA,NA,NA,NA,NA,NA,NA,"1895"
106,NA,NA,NA,NA,NA,NA,NA,NA,NA,NA,NA,NA,NA,NA,NA,NA,NA,NA,"1895"
107,NA,NA,NA,NA,NA,NA,NA,NA,NA,NA,NA,NA,NA,NA,NA,NA,NA,NA,"1895"
108,NA,NA,NA,NA,NA,NA,NA,NA,NA,NA,NA,NA,NA,NA,NA,NA,NA,NA,"1895"
109,NA,NA,NA,NA,NA,NA,NA,NA,NA,NA,NA,NA,NA,NA,NA,NA,NA,NA,"1895"
110,NA,NA,NA,NA,NA,NA,NA,NA,NA,NA,NA,NA,NA,NA,NA,NA,NA,NA,"1895"
111,NA,NA,NA,NA,NA,NA,NA,NA,NA,NA,NA,NA,NA,NA,NA,NA,NA,NA,"1895"
112,NA,NA,NA,NA,NA,NA,NA,NA,NA,NA,NA,NA,NA,NA,NA,NA,NA,NA,"1895"
113,NA,NA,NA,NA,NA,NA,NA,NA,NA,NA,NA,NA,NA,NA,NA,NA,NA,NA,"1895"
114,NA,NA,NA,NA,NA,NA,NA,NA,NA,NA,NA,NA,NA,NA,NA,NA,NA,NA,"1895"
115,NA,NA,NA,NA,NA,NA,NA,NA,NA,NA,NA,NA,NA,NA,NA,NA,NA,NA,"1895"
116,NA,NA,NA,NA,NA,NA,NA,NA,NA,NA,NA,NA,NA,NA,NA,NA,NA,NA,"1895"
117,NA,NA,NA,NA,NA,NA,NA,NA,NA,NA,NA,NA,NA,NA,NA,NA,NA,NA,"1895"
118,NA,NA,NA,NA,NA,NA,NA,NA,NA,NA,NA,NA,NA,NA,NA,NA,NA,NA,"1895"
119,NA,NA,NA,NA,NA,NA,NA,NA,NA,NA,NA,NA,NA,NA,NA,NA,NA,NA,"1895"
120,NA,NA,NA,NA,NA,NA,NA,NA,NA,NA,NA,NA,NA,NA,NA,NA,NA,NA,"1895"
121,NA,NA,NA,NA,NA,NA,NA,NA,NA,NA,NA,NA,NA,NA,NA,NA,NA,NA,"1895"
122,NA,NA,NA,NA,NA,NA,NA,NA,NA,NA,NA,NA,NA,NA,NA,NA,NA,NA,"1895"
123,NA,NA,NA,NA,NA,NA,NA,NA,NA,NA,NA,NA,NA,NA,NA,NA,NA,NA,"1895"
124,NA,NA,NA,NA,NA,NA,NA,NA,NA,NA,NA,NA,NA,NA,NA,NA,NA,NA,"1895"
125,NA,NA,NA,NA,NA,NA,NA,NA,NA,NA,NA,NA,NA,NA,NA,NA,NA,NA,"1895"
126,NA,NA,NA,NA,NA,NA,NA,NA,NA,NA,NA,NA,NA,NA,NA,NA,NA,NA,"1895"
127,NA,NA,NA,NA,NA,NA,NA,NA,NA,NA,NA,NA,NA,NA,NA,NA,NA,NA,"1895"
128,NA,NA,NA,NA,NA,NA,NA,NA,NA,NA,NA,NA,NA,NA,NA,NA,NA,NA,"1895"
129,NA,NA,NA,NA,NA,NA,NA,NA,NA,NA,NA,NA,NA,NA,NA,NA,NA,NA,"1895"
130,NA,NA,NA,NA,NA,NA,NA,NA,NA,NA,NA,NA,NA,NA,NA,NA,NA,NA,"1895"
131,NA,NA,NA,NA,NA,NA,NA,NA,NA,NA,NA,NA,NA,NA,NA,NA,NA,NA,"1895"
132,NA,NA,NA,NA,NA,NA,NA,NA,NA,NA,NA,NA,NA,NA,NA,NA,NA,NA,"1895"
133,NA,NA,NA,NA,NA,NA,NA,NA,NA,NA,NA,NA,NA,NA,NA,NA,NA,NA,"1895"
134,NA,NA,NA,NA,NA,NA,NA,NA,NA,NA,NA,NA,NA,NA,NA,NA,NA,NA,"1895"
135,NA,NA,NA,NA,NA,NA,NA,NA,NA,NA,NA,NA,NA,NA,NA,NA,NA,NA,"1895"
136,NA,NA,NA,NA,NA,NA,NA,NA,NA,NA,NA,NA,NA,NA,NA,NA,NA,NA,"1895"
137,NA,NA,NA,NA,NA,NA,NA,NA,NA,NA,NA,NA,NA,NA,NA,NA,NA,NA,"1895"
138,NA,NA,NA,NA,NA,NA,NA,NA,NA,NA,NA,NA,NA,NA,NA,NA,NA,NA,"1895"
139,NA,NA,NA,NA,NA,NA,NA,NA,NA,NA,NA,NA,NA,NA,NA,NA,NA,NA,"1895"
140,NA,NA,NA,NA,NA,NA,NA,NA,NA,NA,NA,NA,NA,NA,NA,NA,NA,NA,"1895"
141,NA,NA,NA,NA,NA,NA,NA,NA,NA,NA,NA,NA,NA,NA,NA,NA,NA,NA,"1895"
142,NA,NA,NA,NA,NA,NA,NA,NA,NA,NA,NA,NA,NA,NA,NA,NA,NA,NA,"1895"
143,NA,NA,NA,NA,NA,NA,NA,NA,NA,NA,NA,NA,NA,NA,NA,NA,NA,NA,"1895"
144,NA,NA,NA,NA,NA,NA,NA,NA,NA,NA,NA,NA,NA,NA,NA,NA,NA,NA,"1895"
145,NA,NA,NA,NA,NA,NA,NA,NA,NA,NA,NA,NA,NA,NA,NA,NA,NA,NA,"1895"
146,NA,NA,NA,NA,NA,NA,NA,NA,NA,NA,NA,NA,NA,NA,NA,NA,NA,NA,"1895"
147,NA,NA,NA,NA,NA,NA,NA,NA,NA,NA,NA,NA,NA,NA,NA,NA,NA,NA,"1895"
148,NA,NA,NA,NA,NA,NA,NA,NA,NA,NA,NA,NA,NA,NA,NA,NA,NA,NA,"1895"
149,NA,NA,NA,NA,NA,NA,NA,NA,NA,NA,NA,NA,NA,NA,NA,NA,NA,NA,"1895"
150,NA,NA,NA,NA,NA,NA,NA,NA,NA,NA,NA,NA,NA,NA,NA,NA,NA,NA,"1895"
151,NA,NA,NA,NA,NA,NA,NA,NA,NA,NA,NA,NA,NA,NA,NA,NA,NA,NA,"1895"
152,NA,NA,NA,NA,NA,NA,NA,NA,NA,NA,NA,NA,NA,NA,NA,NA,NA,NA,"1895"
153,NA,NA,NA,NA,NA,NA,NA,NA,NA,NA,NA,NA,NA,NA,NA,NA,NA,NA,"1895"
154,NA,NA,NA,NA,NA,NA,NA,NA,NA,NA,NA,NA,NA,NA,NA,NA,NA,NA,"1895"
155,NA,NA,NA,NA,NA,NA,NA,NA,NA,NA,NA,NA,NA,NA,NA,NA,NA,NA,"1895"
156,NA,NA,NA,NA,NA,NA,NA,NA,NA,NA,NA,NA,NA,NA,NA,NA,NA,NA,"1895"
157,NA,NA,NA,NA,NA,NA,NA,NA,NA,NA,NA,NA,NA,NA,NA,NA,NA,NA,"1895"
158,NA,NA,NA,NA,NA,NA,NA,NA,NA,NA,NA,NA,NA,NA,NA,NA,NA,NA,"1895"
159,NA,NA,NA,NA,NA,NA,NA,NA,NA,NA,NA,NA,NA,NA,NA,NA,NA,NA,"1895"
160,NA,NA,NA,NA,NA,NA,NA,NA,NA,NA,NA,NA,NA,NA,NA,NA,NA,NA,"1895"
161,NA,NA,NA,NA,NA,NA,NA,NA,NA,NA,NA,NA,NA,NA,NA,NA,NA,NA,"1895"
162,NA,NA,NA,NA,NA,NA,NA,NA,NA,NA,NA,NA,NA,NA,NA,NA,NA,NA,"1895"
163,NA,NA,NA,NA,NA,NA,NA,NA,NA,NA,NA,NA,NA,NA,NA,NA,NA,NA,"1895"
164,NA,NA,NA,NA,NA,NA,NA,NA,NA,NA,NA,NA,NA,NA,NA,NA,NA,NA,"1895"
165,NA,NA,NA,NA,NA,NA,NA,NA,NA,NA,NA,NA,NA,NA,NA,NA,NA,NA,"1895"
166,NA,NA,NA,NA,NA,NA,NA,NA,NA,NA,NA,NA,NA,NA,NA,NA,NA,NA,"1895"
167,NA,NA,NA,NA,NA,NA,NA,NA,NA,NA,NA,NA,NA,NA,NA,NA,NA,NA,"1895"
168,NA,NA,NA,NA,NA,NA,NA,NA,NA,NA,NA,NA,NA,NA,NA,NA,NA,NA,"1895"
169,NA,NA,NA,NA,NA,NA,NA,NA,NA,NA,NA,NA,NA,NA,NA,NA,NA,NA,"1895"
170,NA,NA,NA,NA,NA,NA,NA,NA,NA,NA,NA,NA,NA,NA,NA,NA,NA,NA,"1895"
171,NA,NA,NA,NA,NA,NA,NA,NA,NA,NA,NA,NA,NA,NA,NA,NA,NA,NA,"1895"
172,NA,NA,NA,NA,NA,NA,NA,NA,NA,NA,NA,NA,NA,NA,NA,NA,NA,NA,"1895"
173,NA,NA,NA,NA,NA,NA,NA,NA,NA,NA,NA,NA,NA,NA,NA,NA,NA,NA,"1895"
174,NA,NA,NA,NA,NA,NA,NA,NA,NA,NA,NA,NA,NA,NA,NA,NA,NA,NA,"1895"
175,NA,NA,NA,NA,NA,NA,NA,NA,NA,NA,NA,NA,NA,NA,NA,NA,NA,NA,"1895"
176,NA,NA,NA,NA,NA,NA,NA,NA,NA,NA,NA,NA,NA,NA,NA,NA,NA,NA,"1895"
177,NA,NA,NA,NA,NA,NA,NA,NA,NA,NA,NA,NA,NA,NA,NA,NA,NA,NA,"1895"
178,NA,NA,NA,NA,NA,NA,NA,NA,NA,NA,NA,NA,NA,NA,NA,NA,NA,NA,"1895"
179,NA,NA,NA,NA,NA,NA,NA,NA,NA,NA,NA,NA,NA,NA,NA,NA,NA,NA,"1895"
180,NA,NA,NA,NA,NA,NA,NA,NA,NA,NA,NA,NA,NA,NA,NA,NA,NA,NA,"1895"
181,NA,NA,NA,NA,NA,NA,NA,NA,NA,NA,NA,NA,NA,NA,NA,NA,NA,NA,"1895"
182,NA,NA,NA,NA,NA,NA,NA,NA,NA,NA,NA,NA,NA,NA,NA,NA,NA,NA,"1895"
183,NA,NA,NA,NA,NA,NA,NA,NA,NA,NA,NA,NA,NA,NA,NA,NA,NA,NA,"1895"
184,NA,NA,NA,NA,NA,NA,NA,NA,NA,NA,NA,NA,NA,NA,NA,NA,NA,NA,"1895"
185,NA,NA,NA,NA,NA,NA,NA,NA,NA,NA,NA,NA,NA,NA,NA,NA,NA,NA,"1895"
186,NA,NA,NA,NA,NA,NA,NA,NA,NA,NA,NA,NA,NA,NA,NA,NA,NA,NA,"1895"
187,NA,NA,NA,NA,NA,NA,NA,NA,NA,NA,NA,NA,NA,NA,NA,NA,NA,NA,"1895"
188,NA,NA,NA,NA,NA,NA,NA,NA,NA,NA,NA,NA,NA,NA,NA,NA,NA,NA,"1895"
189,NA,NA,NA,NA,NA,NA,NA,NA,NA,NA,NA,NA,NA,NA,NA,NA,NA,NA,"1895"
190,NA,NA,NA,NA,NA,NA,NA,NA,NA,NA,NA,NA,NA,NA,NA,NA,NA,NA,"1895"
191,NA,NA,NA,NA,NA,NA,NA,NA,NA,NA,NA,NA,NA,NA,NA,NA,NA,NA,"1895"
192,NA,NA,NA,NA,NA,NA,NA,NA,NA,NA,NA,NA,NA,NA,NA,NA,NA,NA,"1895"
193,NA,NA,NA,NA,NA,NA,NA,NA,NA,NA,NA,NA,NA,NA,NA,NA,NA,NA,"1895"
194,NA,NA,NA,NA,NA,NA,NA,NA,NA,NA,NA,NA,NA,NA,NA,NA,NA,NA,"1895"
195,NA,NA,NA,NA,NA,NA,NA,NA,NA,NA,NA,NA,NA,NA,NA,NA,NA,NA,"1895"
196,NA,NA,NA,NA,NA,NA,NA,NA,NA,NA,NA,NA,NA,NA,NA,NA,NA,NA,"1895"
197,NA,NA,NA,NA,NA,NA,NA,NA,NA,NA,NA,NA,NA,NA,NA,NA,NA,NA,"1895"
198,NA,NA,NA,NA,NA,NA,NA,NA,NA,NA,NA,NA,NA,NA,NA,NA,NA,NA,"1895"
199,NA,NA,NA,NA,NA,NA,NA,NA,NA,NA,NA,NA,NA,NA,NA,NA,NA,NA,"1895"
200,NA,NA,NA,NA,NA,NA,NA,NA,NA,NA,NA,NA,NA,NA,NA,NA,NA,NA,"1895"
1,1,2,3,NA,NA,0,NA,NA,NA,NA,NA,NA,NA,NA,NA,NA,NA,NA,"1946"
2,2,1,3,NA,NA,1,NA,NA,NA,NA,NA,NA,NA,NA,NA,NA,NA,NA,"1946"
3,1,2,2,NA,NA,0,NA,NA,NA,NA,NA,NA,NA,NA,NA,NA,NA,NA,"1946"
4,1,1,2,NA,NA,1,NA,NA,NA,NA,NA,NA,NA,NA,NA,NA,NA,NA,"1946"
5,2,1,2,NA,NA,1,NA,NA,NA,NA,NA,NA,NA,NA,NA,NA,NA,NA,"1946"
6,1,2,2,NA,NA,1,NA,NA,NA,NA,NA,NA,NA,NA,NA,NA,NA,NA,"1946"
7,2,2,3,NA,NA,1,NA,NA,NA,NA,NA,NA,NA,NA,NA,NA,NA,NA,"1946"
8,2,1,2,NA,NA,1,NA,NA,NA,NA,NA,NA,NA,NA,NA,NA,NA,NA,"1946"
9,2,2,3,NA,NA,1,NA,NA,NA,NA,NA,NA,NA,NA,NA,NA,NA,NA,"1946"
10,2,1,3,NA,NA,0,NA,NA,NA,NA,NA,NA,NA,NA,NA,NA,NA,NA,"1946"
11,1,1,2,NA,NA,0,NA,NA,NA,NA,NA,NA,NA,NA,NA,NA,NA,NA,"1946"
12,2,1,3,NA,NA,1,NA,NA,NA,NA,NA,NA,NA,NA,NA,NA,NA,NA,"1946"
13,2,2,3,NA,NA,1,NA,NA,NA,NA,NA,NA,NA,NA,NA,NA,NA,NA,"1946"
14,2,1,3,NA,NA,1,NA,NA,NA,NA,NA,NA,NA,NA,NA,NA,NA,NA,"1946"
15,1,1,2,NA,NA,1,NA,NA,NA,NA,NA,NA,NA,NA,NA,NA,NA,NA,"1946"
16,2,2,3,NA,NA,0,NA,NA,NA,NA,NA,NA,NA,NA,NA,NA,NA,NA,"1946"
17,1,1,2,NA,NA,1,NA,NA,NA,NA,NA,NA,NA,NA,NA,NA,NA,NA,"1946"
18,2,2,3,NA,NA,1,NA,NA,NA,NA,NA,NA,NA,NA,NA,NA,NA,NA,"1946"
19,2,1,3,NA,NA,0,NA,NA,NA,NA,NA,NA,NA,NA,NA,NA,NA,NA,"1946"
20,1,1,2,NA,NA,1,NA,NA,NA,NA,NA,NA,NA,NA,NA,NA,NA,NA,"1946"
21,2,2,3,NA,NA,0,NA,NA,NA,NA,NA,NA,NA,NA,NA,NA,NA,NA,"1946"
22,2,2,3,NA,NA,0,NA,NA,NA,NA,NA,NA,NA,NA,NA,NA,NA,NA,"1946"
23,2,1,2,NA,NA,0,NA,NA,NA,NA,NA,NA,NA,NA,NA,NA,NA,NA,"1946"
24,2,2,3,NA,NA,0,NA,NA,NA,NA,NA,NA,NA,NA,NA,NA,NA,NA,"1946"
25,2,2,3,NA,NA,0,NA,NA,NA,NA,NA,NA,NA,NA,NA,NA,NA,NA,"1946"
26,1,1,3,NA,NA,0,NA,NA,NA,NA,NA,NA,NA,NA,NA,NA,NA,NA,"1946"
27,2,2,3,NA,NA,1,NA,NA,NA,NA,NA,NA,NA,NA,NA,NA,NA,NA,"1946"
28,2,2,3,NA,NA,0,NA,NA,NA,NA,NA,NA,NA,NA,NA,NA,NA,NA,"1946"
29,1,2,2,NA,NA,1,NA,NA,NA,NA,NA,NA,NA,NA,NA,NA,NA,NA,"1946"
30,2,2,3,NA,NA,0,NA,NA,NA,NA,NA,NA,NA,NA,NA,NA,NA,NA,"1946"
31,1,2,2,NA,NA,1,NA,NA,NA,NA,NA,NA,NA,NA,NA,NA,NA,NA,"1946"
32,1,1,2,NA,NA,1,NA,NA,NA,NA,NA,NA,NA,NA,NA,NA,NA,NA,"1946"
33,1,2,2,NA,NA,1,NA,NA,NA,NA,NA,NA,NA,NA,NA,NA,NA,NA,"1946"
34,1,2,3,NA,NA,0,NA,NA,NA,NA,NA,NA,NA,NA,NA,NA,NA,NA,"1946"
35,1,1,2,NA,NA,1,NA,NA,NA,NA,NA,NA,NA,NA,NA,NA,NA,NA,"1946"
36,1,2,2,NA,NA,1,NA,NA,NA,NA,NA,NA,NA,NA,NA,NA,NA,NA,"1946"
37,1,2,2,NA,NA,0,NA,NA,NA,NA,NA,NA,NA,NA,NA,NA,NA,NA,"1946"
38,2,1,3,NA,NA,1,NA,NA,NA,NA,NA,NA,NA,NA,NA,NA,NA,NA,"1946"
39,2,1,3,NA,NA,1,NA,NA,NA,NA,NA,NA,NA,NA,NA,NA,NA,NA,"1946"
40,1,2,2,NA,NA,0,NA,NA,NA,NA,NA,NA,NA,NA,NA,NA,NA,NA,"1946"
41,1,2,3,NA,NA,1,NA,NA,NA,NA,NA,NA,NA,NA,NA,NA,NA,NA,"1946"
42,2,1,3,NA,NA,0,NA,NA,NA,NA,NA,NA,NA,NA,NA,NA,NA,NA,"1946"
43,2,2,3,NA,NA,0,NA,NA,NA,NA,NA,NA,NA,NA,NA,NA,NA,NA,"1946"
44,2,1,3,NA,NA,0,NA,NA,NA,NA,NA,NA,NA,NA,NA,NA,NA,NA,"1946"
45,1,2,2,NA,NA,1,NA,NA,NA,NA,NA,NA,NA,NA,NA,NA,NA,NA,"1946"
46,2,2,3,NA,NA,1,NA,NA,NA,NA,NA,NA,NA,NA,NA,NA,NA,NA,"1946"
47,2,1,2,NA,NA,0,NA,NA,NA,NA,NA,NA,NA,NA,NA,NA,NA,NA,"1946"
48,2,2,3,NA,NA,1,NA,NA,NA,NA,NA,NA,NA,NA,NA,NA,NA,NA,"1946"
49,2,1,2,NA,NA,1,NA,NA,NA,NA,NA,NA,NA,NA,NA,NA,NA,NA,"1946"
50,2,2,2,NA,NA,1,NA,NA,NA,NA,NA,NA,NA,NA,NA,NA,NA,NA,"1946"
51,2,1,3,NA,NA,1,NA,NA,NA,NA,NA,NA,NA,NA,NA,NA,NA,NA,"1946"
52,2,2,3,NA,NA,1,NA,NA,NA,NA,NA,NA,NA,NA,NA,NA,NA,NA,"1946"
53,2,2,2,NA,NA,0,NA,NA,NA,NA,NA,NA,NA,NA,NA,NA,NA,NA,"1946"
54,1,2,2,NA,NA,1,NA,NA,NA,NA,NA,NA,NA,NA,NA,NA,NA,NA,"1946"
55,1,2,2,NA,NA,1,NA,NA,NA,NA,NA,NA,NA,NA,NA,NA,NA,NA,"1946"
56,2,1,3,NA,NA,1,NA,NA,NA,NA,NA,NA,NA,NA,NA,NA,NA,NA,"1946"
57,2,2,3,NA,NA,0,NA,NA,NA,NA,NA,NA,NA,NA,NA,NA,NA,NA,"1946"
58,1,2,2,NA,NA,1,NA,NA,NA,NA,NA,NA,NA,NA,NA,NA,NA,NA,"1946"
59,2,2,2,NA,NA,1,NA,NA,NA,NA,NA,NA,NA,NA,NA,NA,NA,NA,"1946"
60,1,2,3,NA,NA,0,NA,NA,NA,NA,NA,NA,NA,NA,NA,NA,NA,NA,"1946"
61,2,1,3,NA,NA,1,NA,NA,NA,NA,NA,NA,NA,NA,NA,NA,NA,NA,"1946"
62,2,2,3,NA,NA,0,NA,NA,NA,NA,NA,NA,NA,NA,NA,NA,NA,NA,"1946"
63,1,1,2,NA,NA,0,NA,NA,NA,NA,NA,NA,NA,NA,NA,NA,NA,NA,"1946"
64,1,2,2,NA,NA,1,NA,NA,NA,NA,NA,NA,NA,NA,NA,NA,NA,NA,"1946"
65,1,1,2,NA,NA,1,NA,NA,NA,NA,NA,NA,NA,NA,NA,NA,NA,NA,"1946"
66,2,1,3,NA,NA,0,NA,NA,NA,NA,NA,NA,NA,NA,NA,NA,NA,NA,"1946"
67,2,2,3,NA,NA,0,NA,NA,NA,NA,NA,NA,NA,NA,NA,NA,NA,NA,"1946"
68,1,1,2,NA,NA,0,NA,NA,NA,NA,NA,NA,NA,NA,NA,NA,NA,NA,"1946"
69,1,2,3,NA,NA,0,NA,NA,NA,NA,NA,NA,NA,NA,NA,NA,NA,NA,"1946"
70,1,1,2,NA,NA,0,NA,NA,NA,NA,NA,NA,NA,NA,NA,NA,NA,NA,"1946"
71,2,2,2,NA,NA,1,NA,NA,NA,NA,NA,NA,NA,NA,NA,NA,NA,NA,"1946"
72,2,2,3,NA,NA,1,NA,NA,NA,NA,NA,NA,NA,NA,NA,NA,NA,NA,"1946"
73,2,2,3,NA,NA,0,NA,NA,NA,NA,NA,NA,NA,NA,NA,NA,NA,NA,"1946"
74,2,2,3,NA,NA,0,NA,NA,NA,NA,NA,NA,NA,NA,NA,NA,NA,NA,"1946"
75,2,2,2,NA,NA,1,NA,NA,NA,NA,NA,NA,NA,NA,NA,NA,NA,NA,"1946"
76,1,1,2,NA,NA,1,NA,NA,NA,NA,NA,NA,NA,NA,NA,NA,NA,NA,"1946"
77,1,2,2,NA,NA,0,NA,NA,NA,NA,NA,NA,NA,NA,NA,NA,NA,NA,"1946"
78,1,2,3,NA,NA,1,NA,NA,NA,NA,NA,NA,NA,NA,NA,NA,NA,NA,"1946"
79,1,1,2,NA,NA,0,NA,NA,NA,NA,NA,NA,NA,NA,NA,NA,NA,NA,"1946"
80,1,2,3,NA,NA,1,NA,NA,NA,NA,NA,NA,NA,NA,NA,NA,NA,NA,"1946"
81,2,1,3,NA,NA,0,NA,NA,NA,NA,NA,NA,NA,NA,NA,NA,NA,NA,"1946"
82,1,1,3,NA,NA,0,NA,NA,NA,NA,NA,NA,NA,NA,NA,NA,NA,NA,"1946"
83,2,1,3,NA,NA,0,NA,NA,NA,NA,NA,NA,NA,NA,NA,NA,NA,NA,"1946"
84,2,1,3,NA,NA,1,NA,NA,NA,NA,NA,NA,NA,NA,NA,NA,NA,NA,"1946"
85,1,1,2,NA,NA,0,NA,NA,NA,NA,NA,NA,NA,NA,NA,NA,NA,NA,"1946"
86,2,1,3,NA,NA,1,NA,NA,NA,NA,NA,NA,NA,NA,NA,NA,NA,NA,"1946"
87,1,2,2,NA,NA,1,NA,NA,NA,NA,NA,NA,NA,NA,NA,NA,NA,NA,"1946"
88,1,2,2,NA,NA,1,NA,NA,NA,NA,NA,NA,NA,NA,NA,NA,NA,NA,"1946"
89,1,2,3,NA,NA,0,NA,NA,NA,NA,NA,NA,NA,NA,NA,NA,NA,NA,"1946"
90,2,1,2,NA,NA,0,NA,NA,NA,NA,NA,NA,NA,NA,NA,NA,NA,NA,"1946"
91,2,2,3,NA,NA,0,NA,NA,NA,NA,NA,NA,NA,NA,NA,NA,NA,NA,"1946"
92,2,1,3,NA,NA,1,NA,NA,NA,NA,NA,NA,NA,NA,NA,NA,NA,NA,"1946"
93,2,2,2,NA,NA,1,NA,NA,NA,NA,NA,NA,NA,NA,NA,NA,NA,NA,"1946"
94,2,1,3,NA,NA,0,NA,NA,NA,NA,NA,NA,NA,NA,NA,NA,NA,NA,"1946"
95,1,2,2,NA,NA,1,NA,NA,NA,NA,NA,NA,NA,NA,NA,NA,NA,NA,"1946"
96,1,2,2,NA,NA,0,NA,NA,NA,NA,NA,NA,NA,NA,NA,NA,NA,NA,"1946"
97,1,2,3,NA,NA,1,NA,NA,NA,NA,NA,NA,NA,NA,NA,NA,NA,NA,"1946"
98,1,2,3,NA,NA,0,NA,NA,NA,NA,NA,NA,NA,NA,NA,NA,NA,NA,"1946"
99,1,2,2,NA,NA,1,NA,NA,NA,NA,NA,NA,NA,NA,NA,NA,NA,NA,"1946"
100,1,1,3,NA,NA,1,NA,NA,NA,NA,NA,NA,NA,NA,NA,NA,NA,NA,"1946"
101,1,1,2,NA,NA,1,NA,NA,NA,NA,NA,NA,NA,NA,NA,NA,NA,NA,"1946"
102,2,2,3,NA,NA,0,NA,NA,NA,NA,NA,NA,NA,NA,NA,NA,NA,NA,"1946"
103,2,1,3,NA,NA,1,NA,NA,NA,NA,NA,NA,NA,NA,NA,NA,NA,NA,"1946"
104,1,2,3,NA,NA,0,NA,NA,NA,NA,NA,NA,NA,NA,NA,NA,NA,NA,"1946"
105,1,1,3,NA,NA,1,NA,NA,NA,NA,NA,NA,NA,NA,NA,NA,NA,NA,"1946"
106,2,1,3,NA,NA,1,NA,NA,NA,NA,NA,NA,NA,NA,NA,NA,NA,NA,"1946"
107,1,2,2,NA,NA,1,NA,NA,NA,NA,NA,NA,NA,NA,NA,NA,NA,NA,"1946"
108,2,1,2,NA,NA,0,NA,NA,NA,NA,NA,NA,NA,NA,NA,NA,NA,NA,"1946"
109,2,1,3,NA,NA,0,NA,NA,NA,NA,NA,NA,NA,NA,NA,NA,NA,NA,"1946"
110,2,1,3,NA,NA,1,NA,NA,NA,NA,NA,NA,NA,NA,NA,NA,NA,NA,"1946"
111,1,1,3,NA,NA,1,NA,NA,NA,NA,NA,NA,NA,NA,NA,NA,NA,NA,"1946"
112,1,2,2,NA,NA,0,NA,NA,NA,NA,NA,NA,NA,NA,NA,NA,NA,NA,"1946"
113,1,2,2,NA,NA,1,NA,NA,NA,NA,NA,NA,NA,NA,NA,NA,NA,NA,"1946"
114,1,2,3,NA,NA,1,NA,NA,NA,NA,NA,NA,NA,NA,NA,NA,NA,NA,"1946"
115,1,2,2,NA,NA,0,NA,NA,NA,NA,NA,NA,NA,NA,NA,NA,NA,NA,"1946"
116,1,2,3,NA,NA,1,NA,NA,NA,NA,NA,NA,NA,NA,NA,NA,NA,NA,"1946"
117,2,2,2,NA,NA,1,NA,NA,NA,NA,NA,NA,NA,NA,NA,NA,NA,NA,"1946"
118,2,1,3,NA,NA,0,NA,NA,NA,NA,NA,NA,NA,NA,NA,NA,NA,NA,"1946"
119,2,2,3,NA,NA,1,NA,NA,NA,NA,NA,NA,NA,NA,NA,NA,NA,NA,"1946"
120,2,1,3,NA,NA,0,NA,NA,NA,NA,NA,NA,NA,NA,NA,NA,NA,NA,"1946"
121,1,1,2,NA,NA,0,NA,NA,NA,NA,NA,NA,NA,NA,NA,NA,NA,NA,"1946"
122,2,1,2,NA,NA,0,NA,NA,NA,NA,NA,NA,NA,NA,NA,NA,NA,NA,"1946"
123,1,2,2,NA,NA,0,NA,NA,NA,NA,NA,NA,NA,NA,NA,NA,NA,NA,"1946"
124,1,1,2,NA,NA,0,NA,NA,NA,NA,NA,NA,NA,NA,NA,NA,NA,NA,"1946"
125,1,2,2,NA,NA,0,NA,NA,NA,NA,NA,NA,NA,NA,NA,NA,NA,NA,"1946"
126,1,2,2,NA,NA,0,NA,NA,NA,NA,NA,NA,NA,NA,NA,NA,NA,NA,"1946"
127,2,1,3,NA,NA,1,NA,NA,NA,NA,NA,NA,NA,NA,NA,NA,NA,NA,"1946"
128,1,2,3,NA,NA,0,NA,NA,NA,NA,NA,NA,NA,NA,NA,NA,NA,NA,"1946"
129,1,1,3,NA,NA,0,NA,NA,NA,NA,NA,NA,NA,NA,NA,NA,NA,NA,"1946"
130,2,2,3,NA,NA,0,NA,NA,NA,NA,NA,NA,NA,NA,NA,NA,NA,NA,"1946"
131,1,2,3,NA,NA,1,NA,NA,NA,NA,NA,NA,NA,NA,NA,NA,NA,NA,"1946"
132,2,2,3,NA,NA,0,NA,NA,NA,NA,NA,NA,NA,NA,NA,NA,NA,NA,"1946"
133,1,1,3,NA,NA,0,NA,NA,NA,NA,NA,NA,NA,NA,NA,NA,NA,NA,"1946"
134,2,2,3,NA,NA,1,NA,NA,NA,NA,NA,NA,NA,NA,NA,NA,NA,NA,"1946"
135,1,2,3,NA,NA,0,NA,NA,NA,NA,NA,NA,NA,NA,NA,NA,NA,NA,"1946"
136,1,2,2,NA,NA,0,NA,NA,NA,NA,NA,NA,NA,NA,NA,NA,NA,NA,"1946"
137,2,2,2,NA,NA,0,NA,NA,NA,NA,NA,NA,NA,NA,NA,NA,NA,NA,"1946"
138,1,2,2,NA,NA,1,NA,NA,NA,NA,NA,NA,NA,NA,NA,NA,NA,NA,"1946"
139,1,1,2,NA,NA,0,NA,NA,NA,NA,NA,NA,NA,NA,NA,NA,NA,NA,"1946"
140,2,2,3,NA,NA,1,NA,NA,NA,NA,NA,NA,NA,NA,NA,NA,NA,NA,"1946"
141,2,1,3,NA,NA,1,NA,NA,NA,NA,NA,NA,NA,NA,NA,NA,NA,NA,"1946"
142,2,2,3,NA,NA,1,NA,NA,NA,NA,NA,NA,NA,NA,NA,NA,NA,NA,"1946"
143,2,2,3,NA,NA,0,NA,NA,NA,NA,NA,NA,NA,NA,NA,NA,NA,NA,"1946"
144,2,1,3,NA,NA,1,NA,NA,NA,NA,NA,NA,NA,NA,NA,NA,NA,NA,"1946"
145,2,2,3,NA,NA,0,NA,NA,NA,NA,NA,NA,NA,NA,NA,NA,NA,NA,"1946"
146,2,1,3,NA,NA,0,NA,NA,NA,NA,NA,NA,NA,NA,NA,NA,NA,NA,"1946"
147,2,2,3,NA,NA,1,NA,NA,NA,NA,NA,NA,NA,NA,NA,NA,NA,NA,"1946"
148,2,1,2,NA,NA,0,NA,NA,NA,NA,NA,NA,NA,NA,NA,NA,NA,NA,"1946"
149,1,1,2,NA,NA,0,NA,NA,NA,NA,NA,NA,NA,NA,NA,NA,NA,NA,"1946"
150,1,2,3,NA,NA,0,NA,NA,NA,NA,NA,NA,NA,NA,NA,NA,NA,NA,"1946"
151,2,1,2,NA,NA,0,NA,NA,NA,NA,NA,NA,NA,NA,NA,NA,NA,NA,"1946"
152,2,1,3,NA,NA,0,NA,NA,NA,NA,NA,NA,NA,NA,NA,NA,NA,NA,"1946"
153,2,2,3,NA,NA,0,NA,NA,NA,NA,NA,NA,NA,NA,NA,NA,NA,NA,"1946"
154,2,1,3,NA,NA,1,NA,NA,NA,NA,NA,NA,NA,NA,NA,NA,NA,NA,"1946"
155,2,2,3,NA,NA,0,NA,NA,NA,NA,NA,NA,NA,NA,NA,NA,NA,NA,"1946"
156,1,2,2,NA,NA,1,NA,NA,NA,NA,NA,NA,NA,NA,NA,NA,NA,NA,"1946"
157,1,1,2,NA,NA,0,NA,NA,NA,NA,NA,NA,NA,NA,NA,NA,NA,NA,"1946"
158,2,2,3,NA,NA,0,NA,NA,NA,NA,NA,NA,NA,NA,NA,NA,NA,NA,"1946"
159,1,2,2,NA,NA,1,NA,NA,NA,NA,NA,NA,NA,NA,NA,NA,NA,NA,"1946"
160,1,1,2,NA,NA,1,NA,NA,NA,NA,NA,NA,NA,NA,NA,NA,NA,NA,"1946"
161,2,1,3,NA,NA,1,NA,NA,NA,NA,NA,NA,NA,NA,NA,NA,NA,NA,"1946"
162,2,2,3,NA,NA,0,NA,NA,NA,NA,NA,NA,NA,NA,NA,NA,NA,NA,"1946"
163,2,1,2,NA,NA,1,NA,NA,NA,NA,NA,NA,NA,NA,NA,NA,NA,NA,"1946"
164,2,2,3,NA,NA,0,NA,NA,NA,NA,NA,NA,NA,NA,NA,NA,NA,NA,"1946"
165,2,1,3,NA,NA,1,NA,NA,NA,NA,NA,NA,NA,NA,NA,NA,NA,NA,"1946"
166,1,1,2,NA,NA,0,NA,NA,NA,NA,NA,NA,NA,NA,NA,NA,NA,NA,"1946"
167,1,2,2,NA,NA,0,NA,NA,NA,NA,NA,NA,NA,NA,NA,NA,NA,NA,"1946"
168,2,1,3,NA,NA,1,NA,NA,NA,NA,NA,NA,NA,NA,NA,NA,NA,NA,"1946"
169,1,1,2,NA,NA,1,NA,NA,NA,NA,NA,NA,NA,NA,NA,NA,NA,NA,"1946"
170,2,1,3,NA,NA,0,NA,NA,NA,NA,NA,NA,NA,NA,NA,NA,NA,NA,"1946"
171,2,1,3,NA,NA,1,NA,NA,NA,NA,NA,NA,NA,NA,NA,NA,NA,NA,"1946"
172,1,2,2,NA,NA,1,NA,NA,NA,NA,NA,NA,NA,NA,NA,NA,NA,NA,"1946"
173,1,2,3,NA,NA,0,NA,NA,NA,NA,NA,NA,NA,NA,NA,NA,NA,NA,"1946"
174,0,NA,NA,NA,NA,NA,NA,NA,NA,NA,NA,NA,NA,NA,NA,NA,NA,NA,"1946"
175,2,1,3,NA,NA,1,NA,NA,NA,NA,NA,NA,NA,NA,NA,NA,NA,NA,"1946"
176,2,1,3,NA,NA,1,NA,NA,NA,NA,NA,NA,NA,NA,NA,NA,NA,NA,"1946"
177,2,1,3,NA,NA,0,NA,NA,NA,NA,NA,NA,NA,NA,NA,NA,NA,NA,"1946"
178,2,1,3,NA,NA,0,NA,NA,NA,NA,NA,NA,NA,NA,NA,NA,NA,NA,"1946"
179,1,2,2,NA,NA,1,NA,NA,NA,NA,NA,NA,NA,NA,NA,NA,NA,NA,"1946"
180,1,2,2,NA,NA,1,NA,NA,NA,NA,NA,NA,NA,NA,NA,NA,NA,NA,"1946"
181,1,2,3,NA,NA,1,NA,NA,NA,NA,NA,NA,NA,NA,NA,NA,NA,NA,"1946"
182,1,2,2,NA,NA,1,NA,NA,NA,NA,NA,NA,NA,NA,NA,NA,NA,NA,"1946"
183,1,2,2,NA,NA,0,NA,NA,NA,NA,NA,NA,NA,NA,NA,NA,NA,NA,"1946"
184,1,2,3,NA,NA,0,NA,NA,NA,NA,NA,NA,NA,NA,NA,NA,NA,NA,"1946"
185,1,1,3,NA,NA,1,NA,NA,NA,NA,NA,NA,NA,NA,NA,NA,NA,NA,"1946"
186,1,1,2,NA,NA,0,NA,NA,NA,NA,NA,NA,NA,NA,NA,NA,NA,NA,"1946"
187,2,1,3,NA,NA,1,NA,NA,NA,NA,NA,NA,NA,NA,NA,NA,NA,NA,"1946"
188,2,1,3,NA,NA,0,NA,NA,NA,NA,NA,NA,NA,NA,NA,NA,NA,NA,"1946"
189,2,1,2,NA,NA,1,NA,NA,NA,NA,NA,NA,NA,NA,NA,NA,NA,NA,"1946"
190,2,2,3,NA,NA,1,NA,NA,NA,NA,NA,NA,NA,NA,NA,NA,NA,NA,"1946"
191,1,2,3,NA,NA,1,NA,NA,NA,NA,NA,NA,NA,NA,NA,NA,NA,NA,"1946"
192,1,2,3,NA,NA,1,NA,NA,NA,NA,NA,NA,NA,NA,NA,NA,NA,NA,"1946"
193,2,1,2,NA,NA,1,NA,NA,NA,NA,NA,NA,NA,NA,NA,NA,NA,NA,"1946"
194,1,2,3,NA,NA,1,NA,NA,NA,NA,NA,NA,NA,NA,NA,NA,NA,NA,"1946"
195,1,2,2,NA,NA,1,NA,NA,NA,NA,NA,NA,NA,NA,NA,NA,NA,NA,"1946"
196,1,2,3,NA,NA,0,NA,NA,NA,NA,NA,NA,NA,NA,NA,NA,NA,NA,"1946"
197,2,1,3,NA,NA,0,NA,NA,NA,NA,NA,NA,NA,NA,NA,NA,NA,NA,"1946"
198,1,2,2,NA,NA,1,NA,NA,NA,NA,NA,NA,NA,NA,NA,NA,NA,NA,"1946"
199,1,2,2,NA,NA,1,NA,NA,NA,NA,NA,NA,NA,NA,NA,NA,NA,NA,"1946"
200,1,2,2,NA,NA,0,NA,NA,NA,NA,NA,NA,NA,NA,NA,NA,NA,NA,"1946"
1,1,2,3,NA,NA,1,NA,NA,NA,NA,NA,NA,NA,NA,NA,NA,NA,NA,"1984"
2,2,1,3,NA,NA,1,NA,NA,NA,NA,NA,NA,NA,NA,NA,NA,NA,NA,"1984"
3,2,0,2,NA,NA,NA,NA,NA,NA,NA,NA,NA,NA,NA,NA,NA,NA,NA,"1984"
4,2,1,3,NA,NA,1,NA,NA,NA,NA,NA,NA,NA,NA,NA,NA,NA,NA,"1984"
5,1,2,3,NA,NA,1,NA,NA,NA,NA,NA,NA,NA,NA,NA,NA,NA,NA,"1984"
6,1,1,2,NA,NA,1,NA,NA,NA,NA,NA,NA,NA,NA,NA,NA,NA,NA,"1984"
7,1,2,2,NA,NA,0,NA,NA,NA,NA,NA,NA,NA,NA,NA,NA,NA,NA,"1984"
8,1,1,2,NA,NA,0,NA,NA,NA,NA,NA,NA,NA,NA,NA,NA,NA,NA,"1984"
9,2,2,3,NA,NA,0,NA,NA,NA,NA,NA,NA,NA,NA,NA,NA,NA,NA,"1984"
10,1,2,2,NA,NA,1,NA,NA,NA,NA,NA,NA,NA,NA,NA,NA,NA,NA,"1984"
11,2,1,3,NA,NA,1,NA,NA,NA,NA,NA,NA,NA,NA,NA,NA,NA,NA,"1984"
12,2,1,2,NA,NA,1,NA,NA,NA,NA,NA,NA,NA,NA,NA,NA,NA,NA,"1984"
13,2,1,3,NA,NA,0,NA,NA,NA,NA,NA,NA,NA,NA,NA,NA,NA,NA,"1984"
14,2,2,3,NA,NA,0,NA,NA,NA,NA,NA,NA,NA,NA,NA,NA,NA,NA,"1984"
15,2,1,2,NA,NA,1,NA,NA,NA,NA,NA,NA,NA,NA,NA,NA,NA,NA,"1984"
16,1,2,2,NA,NA,0,NA,NA,NA,NA,NA,NA,NA,NA,NA,NA,NA,NA,"1984"
17,1,1,3,NA,NA,0,NA,NA,NA,NA,NA,NA,NA,NA,NA,NA,NA,NA,"1984"
18,2,2,3,NA,NA,0,NA,NA,NA,NA,NA,NA,NA,NA,NA,NA,NA,NA,"1984"
19,2,1,3,NA,NA,1,NA,NA,NA,NA,NA,NA,NA,NA,NA,NA,NA,NA,"1984"
20,2,1,3,NA,NA,1,NA,NA,NA,NA,NA,NA,NA,NA,NA,NA,NA,NA,"1984"
21,2,1,3,NA,NA,1,NA,NA,NA,NA,NA,NA,NA,NA,NA,NA,NA,NA,"1984"
22,2,1,2,NA,NA,0,NA,NA,NA,NA,NA,NA,NA,NA,NA,NA,NA,NA,"1984"
23,2,1,3,NA,NA,1,NA,NA,NA,NA,NA,NA,NA,NA,NA,NA,NA,NA,"1984"
24,1,1,3,NA,NA,1,NA,NA,NA,NA,NA,NA,NA,NA,NA,NA,NA,NA,"1984"
25,1,1,3,NA,NA,1,NA,NA,NA,NA,NA,NA,NA,NA,NA,NA,NA,NA,"1984"
26,1,1,3,NA,NA,1,NA,NA,NA,NA,NA,NA,NA,NA,NA,NA,NA,NA,"1984"
27,1,1,3,NA,NA,0,NA,NA,NA,NA,NA,NA,NA,NA,NA,NA,NA,NA,"1984"
28,2,2,3,NA,NA,0,NA,NA,NA,NA,NA,NA,NA,NA,NA,NA,NA,NA,"1984"
29,2,2,3,NA,NA,0,NA,NA,NA,NA,NA,NA,NA,NA,NA,NA,NA,NA,"1984"
30,1,1,2,NA,NA,1,NA,NA,NA,NA,NA,NA,NA,NA,NA,NA,NA,NA,"1984"
31,2,2,2,NA,NA,1,NA,NA,NA,NA,NA,NA,NA,NA,NA,NA,NA,NA,"1984"
32,1,1,3,NA,NA,1,NA,NA,NA,NA,NA,NA,NA,NA,NA,NA,NA,NA,"1984"
33,2,1,3,NA,NA,1,NA,NA,NA,NA,NA,NA,NA,NA,NA,NA,NA,NA,"1984"
34,2,1,3,NA,NA,1,NA,NA,NA,NA,NA,NA,NA,NA,NA,NA,NA,NA,"1984"
35,1,1,2,NA,NA,1,NA,NA,NA,NA,NA,NA,NA,NA,NA,NA,NA,NA,"1984"
36,2,2,2,NA,NA,1,NA,NA,NA,NA,NA,NA,NA,NA,NA,NA,NA,NA,"1984"
37,2,2,3,NA,NA,0,NA,NA,NA,NA,NA,NA,NA,NA,NA,NA,NA,NA,"1984"
38,1,1,2,NA,NA,0,NA,NA,NA,NA,NA,NA,NA,NA,NA,NA,NA,NA,"1984"
39,2,2,3,NA,NA,1,NA,NA,NA,NA,NA,NA,NA,NA,NA,NA,NA,NA,"1984"
40,1,1,2,NA,NA,0,NA,NA,NA,NA,NA,NA,NA,NA,NA,NA,NA,NA,"1984"
41,2,2,3,NA,NA,0,NA,NA,NA,NA,NA,NA,NA,NA,NA,NA,NA,NA,"1984"
42,1,1,2,NA,NA,1,NA,NA,NA,NA,NA,NA,NA,NA,NA,NA,NA,NA,"1984"
43,2,1,3,NA,NA,1,NA,NA,NA,NA,NA,NA,NA,NA,NA,NA,NA,NA,"1984"
44,2,2,3,NA,NA,0,NA,NA,NA,NA,NA,NA,NA,NA,NA,NA,NA,NA,"1984"
45,1,2,3,NA,NA,0,NA,NA,NA,NA,NA,NA,NA,NA,NA,NA,NA,NA,"1984"
46,1,1,2,NA,NA,1,NA,NA,NA,NA,NA,NA,NA,NA,NA,NA,NA,NA,"1984"
47,2,2,3,NA,NA,0,NA,NA,NA,NA,NA,NA,NA,NA,NA,NA,NA,NA,"1984"
48,1,1,3,NA,NA,0,NA,NA,NA,NA,NA,NA,NA,NA,NA,NA,NA,NA,"1984"
49,2,1,2,NA,NA,1,NA,NA,NA,NA,NA,NA,NA,NA,NA,NA,NA,NA,"1984"
50,2,2,2,NA,NA,0,NA,NA,NA,NA,NA,NA,NA,NA,NA,NA,NA,NA,"1984"
51,1,2,3,NA,NA,1,NA,NA,NA,NA,NA,NA,NA,NA,NA,NA,NA,NA,"1984"
52,1,2,2,NA,NA,0,NA,NA,NA,NA,NA,NA,NA,NA,NA,NA,NA,NA,"1984"
53,1,1,2,NA,NA,1,NA,NA,NA,NA,NA,NA,NA,NA,NA,NA,NA,NA,"1984"
54,2,1,3,NA,NA,0,NA,NA,NA,NA,NA,NA,NA,NA,NA,NA,NA,NA,"1984"
55,2,2,3,NA,NA,0,NA,NA,NA,NA,NA,NA,NA,NA,NA,NA,NA,NA,"1984"
56,2,1,3,NA,NA,0,NA,NA,NA,NA,NA,NA,NA,NA,NA,NA,NA,NA,"1984"
57,2,1,3,NA,NA,0,NA,NA,NA,NA,NA,NA,NA,NA,NA,NA,NA,NA,"1984"
58,2,1,3,NA,NA,1,NA,NA,NA,NA,NA,NA,NA,NA,NA,NA,NA,NA,"1984"
59,2,1,3,NA,NA,0,NA,NA,NA,NA,NA,NA,NA,NA,NA,NA,NA,NA,"1984"
60,2,1,3,NA,NA,1,NA,NA,NA,NA,NA,NA,NA,NA,NA,NA,NA,NA,"1984"
61,2,1,3,NA,NA,0,NA,NA,NA,NA,NA,NA,NA,NA,NA,NA,NA,NA,"1984"
62,2,1,2,NA,NA,1,NA,NA,NA,NA,NA,NA,NA,NA,NA,NA,NA,NA,"1984"
63,1,2,2,NA,NA,1,NA,NA,NA,NA,NA,NA,NA,NA,NA,NA,NA,NA,"1984"
64,1,1,2,NA,NA,0,NA,NA,NA,NA,NA,NA,NA,NA,NA,NA,NA,NA,"1984"
65,2,2,2,NA,NA,1,NA,NA,NA,NA,NA,NA,NA,NA,NA,NA,NA,NA,"1984"
66,2,1,3,NA,NA,1,NA,NA,NA,NA,NA,NA,NA,NA,NA,NA,NA,NA,"1984"
67,2,1,3,NA,NA,0,NA,NA,NA,NA,NA,NA,NA,NA,NA,NA,NA,NA,"1984"
68,2,1,3,NA,NA,0,NA,NA,NA,NA,NA,NA,NA,NA,NA,NA,NA,NA,"1984"
69,2,2,2,NA,NA,1,NA,NA,NA,NA,NA,NA,NA,NA,NA,NA,NA,NA,"1984"
70,1,2,3,NA,NA,0,NA,NA,NA,NA,NA,NA,NA,NA,NA,NA,NA,NA,"1984"
71,2,1,2,NA,NA,0,NA,NA,NA,NA,NA,NA,NA,NA,NA,NA,NA,NA,"1984"
72,2,1,3,NA,NA,1,NA,NA,NA,NA,NA,NA,NA,NA,NA,NA,NA,NA,"1984"
73,2,2,3,NA,NA,0,NA,NA,NA,NA,NA,NA,NA,NA,NA,NA,NA,NA,"1984"
74,2,0,3,NA,NA,NA,NA,NA,NA,NA,NA,NA,NA,NA,NA,NA,NA,NA,"1984"
75,2,1,3,NA,NA,1,NA,NA,NA,NA,NA,NA,NA,NA,NA,NA,NA,NA,"1984"
76,2,2,3,NA,NA,1,NA,NA,NA,NA,NA,NA,NA,NA,NA,NA,NA,NA,"1984"
77,1,2,2,NA,NA,1,NA,NA,NA,NA,NA,NA,NA,NA,NA,NA,NA,NA,"1984"
78,2,1,2,NA,NA,1,NA,NA,NA,NA,NA,NA,NA,NA,NA,NA,NA,NA,"1984"
79,2,1,3,NA,NA,1,NA,NA,NA,NA,NA,NA,NA,NA,NA,NA,NA,NA,"1984"
80,2,1,3,NA,NA,0,NA,NA,NA,NA,NA,NA,NA,NA,NA,NA,NA,NA,"1984"
81,2,1,3,NA,NA,0,NA,NA,NA,NA,NA,NA,NA,NA,NA,NA,NA,NA,"1984"
82,2,1,3,NA,NA,0,NA,NA,NA,NA,NA,NA,NA,NA,NA,NA,NA,NA,"1984"
83,2,1,2,NA,NA,0,NA,NA,NA,NA,NA,NA,NA,NA,NA,NA,NA,NA,"1984"
84,2,1,2,NA,NA,0,NA,NA,NA,NA,NA,NA,NA,NA,NA,NA,NA,NA,"1984"
85,1,1,3,NA,NA,1,NA,NA,NA,NA,NA,NA,NA,NA,NA,NA,NA,NA,"1984"
86,2,1,3,NA,NA,0,NA,NA,NA,NA,NA,NA,NA,NA,NA,NA,NA,NA,"1984"
87,2,1,3,NA,NA,0,NA,NA,NA,NA,NA,NA,NA,NA,NA,NA,NA,NA,"1984"
88,2,1,3,NA,NA,0,NA,NA,NA,NA,NA,NA,NA,NA,NA,NA,NA,NA,"1984"
89,2,1,2,NA,NA,1,NA,NA,NA,NA,NA,NA,NA,NA,NA,NA,NA,NA,"1984"
90,2,1,3,NA,NA,0,NA,NA,NA,NA,NA,NA,NA,NA,NA,NA,NA,NA,"1984"
91,2,2,2,NA,NA,0,NA,NA,NA,NA,NA,NA,NA,NA,NA,NA,NA,NA,"1984"
92,1,2,3,NA,NA,0,NA,NA,NA,NA,NA,NA,NA,NA,NA,NA,NA,NA,"1984"
93,1,2,3,NA,NA,0,NA,NA,NA,NA,NA,NA,NA,NA,NA,NA,NA,NA,"1984"
94,2,1,3,NA,NA,1,NA,NA,NA,NA,NA,NA,NA,NA,NA,NA,NA,NA,"1984"
95,2,1,2,NA,NA,1,NA,NA,NA,NA,NA,NA,NA,NA,NA,NA,NA,NA,"1984"
96,2,1,3,NA,NA,1,NA,NA,NA,NA,NA,NA,NA,NA,NA,NA,NA,NA,"1984"
97,2,2,3,NA,NA,1,NA,NA,NA,NA,NA,NA,NA,NA,NA,NA,NA,NA,"1984"
98,0,NA,NA,NA,NA,NA,NA,NA,NA,NA,NA,NA,NA,NA,NA,NA,NA,NA,"1984"
99,2,1,2,NA,NA,0,NA,NA,NA,NA,NA,NA,NA,NA,NA,NA,NA,NA,"1984"
100,2,1,3,NA,NA,0,NA,NA,NA,NA,NA,NA,NA,NA,NA,NA,NA,NA,"1984"
101,2,2,2,NA,NA,1,NA,NA,NA,NA,NA,NA,NA,NA,NA,NA,NA,NA,"1984"
102,1,2,2,NA,NA,1,NA,NA,NA,NA,NA,NA,NA,NA,NA,NA,NA,NA,"1984"
103,2,2,2,NA,NA,1,NA,NA,NA,NA,NA,NA,NA,NA,NA,NA,NA,NA,"1984"
104,2,2,3,NA,NA,0,NA,NA,NA,NA,NA,NA,NA,NA,NA,NA,NA,NA,"1984"
105,2,2,3,NA,NA,0,NA,NA,NA,NA,NA,NA,NA,NA,NA,NA,NA,NA,"1984"
106,1,2,2,NA,NA,0,NA,NA,NA,NA,NA,NA,NA,NA,NA,NA,NA,NA,"1984"
107,1,1,2,NA,NA,1,NA,NA,NA,NA,NA,NA,NA,NA,NA,NA,NA,NA,"1984"
108,2,1,3,NA,NA,1,NA,NA,NA,NA,NA,NA,NA,NA,NA,NA,NA,NA,"1984"
109,2,1,3,NA,NA,1,NA,NA,NA,NA,NA,NA,NA,NA,NA,NA,NA,NA,"1984"
110,2,2,3,NA,NA,0,NA,NA,NA,NA,NA,NA,NA,NA,NA,NA,NA,NA,"1984"
111,1,1,2,NA,NA,0,NA,NA,NA,NA,NA,NA,NA,NA,NA,NA,NA,NA,"1984"
112,2,1,3,NA,NA,1,NA,NA,NA,NA,NA,NA,NA,NA,NA,NA,NA,NA,"1984"
113,2,1,3,NA,NA,0,NA,NA,NA,NA,NA,NA,NA,NA,NA,NA,NA,NA,"1984"
114,2,2,2,NA,NA,1,NA,NA,NA,NA,NA,NA,NA,NA,NA,NA,NA,NA,"1984"
115,1,2,2,NA,NA,1,NA,NA,NA,NA,NA,NA,NA,NA,NA,NA,NA,NA,"1984"
116,1,2,2,NA,NA,1,NA,NA,NA,NA,NA,NA,NA,NA,NA,NA,NA,NA,"1984"
117,1,2,2,NA,NA,1,NA,NA,NA,NA,NA,NA,NA,NA,NA,NA,NA,NA,"1984"
118,1,1,3,NA,NA,0,NA,NA,NA,NA,NA,NA,NA,NA,NA,NA,NA,NA,"1984"
119,1,2,2,NA,NA,1,NA,NA,NA,NA,NA,NA,NA,NA,NA,NA,NA,NA,"1984"
120,1,2,2,NA,NA,1,NA,NA,NA,NA,NA,NA,NA,NA,NA,NA,NA,NA,"1984"
121,1,2,2,NA,NA,1,NA,NA,NA,NA,NA,NA,NA,NA,NA,NA,NA,NA,"1984"
122,1,2,2,NA,NA,0,NA,NA,NA,NA,NA,NA,NA,NA,NA,NA,NA,NA,"1984"
123,2,2,3,NA,NA,0,NA,NA,NA,NA,NA,NA,NA,NA,NA,NA,NA,NA,"1984"
124,2,1,2,NA,NA,1,NA,NA,NA,NA,NA,NA,NA,NA,NA,NA,NA,NA,"1984"
125,1,1,3,NA,NA,0,NA,NA,NA,NA,NA,NA,NA,NA,NA,NA,NA,NA,"1984"
126,2,1,3,NA,NA,1,NA,NA,NA,NA,NA,NA,NA,NA,NA,NA,NA,NA,"1984"
127,2,1,3,NA,NA,0,NA,NA,NA,NA,NA,NA,NA,NA,NA,NA,NA,NA,"1984"
128,1,1,2,NA,NA,0,NA,NA,NA,NA,NA,NA,NA,NA,NA,NA,NA,NA,"1984"
129,1,2,2,NA,NA,0,NA,NA,NA,NA,NA,NA,NA,NA,NA,NA,NA,NA,"1984"
130,2,1,2,NA,NA,0,NA,NA,NA,NA,NA,NA,NA,NA,NA,NA,NA,NA,"1984"
131,2,1,2,NA,NA,0,NA,NA,NA,NA,NA,NA,NA,NA,NA,NA,NA,NA,"1984"
132,2,2,3,NA,NA,0,NA,NA,NA,NA,NA,NA,NA,NA,NA,NA,NA,NA,"1984"
133,1,1,2,NA,NA,0,NA,NA,NA,NA,NA,NA,NA,NA,NA,NA,NA,NA,"1984"
134,1,2,3,NA,NA,1,NA,NA,NA,NA,NA,NA,NA,NA,NA,NA,NA,NA,"1984"
135,1,2,2,NA,NA,1,NA,NA,NA,NA,NA,NA,NA,NA,NA,NA,NA,NA,"1984"
136,1,2,2,NA,NA,1,NA,NA,NA,NA,NA,NA,NA,NA,NA,NA,NA,NA,"1984"
137,2,2,2,NA,NA,0,NA,NA,NA,NA,NA,NA,NA,NA,NA,NA,NA,NA,"1984"
138,1,1,2,NA,NA,0,NA,NA,NA,NA,NA,NA,NA,NA,NA,NA,NA,NA,"1984"
139,2,1,3,NA,NA,0,NA,NA,NA,NA,NA,NA,NA,NA,NA,NA,NA,NA,"1984"
140,2,1,3,NA,NA,1,NA,NA,NA,NA,NA,NA,NA,NA,NA,NA,NA,NA,"1984"
141,2,2,2,NA,NA,1,NA,NA,NA,NA,NA,NA,NA,NA,NA,NA,NA,NA,"1984"
142,1,2,3,NA,NA,0,NA,NA,NA,NA,NA,NA,NA,NA,NA,NA,NA,NA,"1984"
143,1,2,2,NA,NA,1,NA,NA,NA,NA,NA,NA,NA,NA,NA,NA,NA,NA,"1984"
144,1,2,2,NA,NA,0,NA,NA,NA,NA,NA,NA,NA,NA,NA,NA,NA,NA,"1984"
145,1,2,2,NA,NA,0,NA,NA,NA,NA,NA,NA,NA,NA,NA,NA,NA,NA,"1984"
146,1,2,2,NA,NA,1,NA,NA,NA,NA,NA,NA,NA,NA,NA,NA,NA,NA,"1984"
147,1,2,2,NA,NA,0,NA,NA,NA,NA,NA,NA,NA,NA,NA,NA,NA,NA,"1984"
148,1,2,2,NA,NA,1,NA,NA,NA,NA,NA,NA,NA,NA,NA,NA,NA,NA,"1984"
149,2,2,2,NA,NA,0,NA,NA,NA,NA,NA,NA,NA,NA,NA,NA,NA,NA,"1984"
150,2,1,2,NA,NA,0,NA,NA,NA,NA,NA,NA,NA,NA,NA,NA,NA,NA,"1984"
151,2,1,3,NA,NA,0,NA,NA,NA,NA,NA,NA,NA,NA,NA,NA,NA,NA,"1984"
152,2,1,3,NA,NA,1,NA,NA,NA,NA,NA,NA,NA,NA,NA,NA,NA,NA,"1984"
153,2,1,3,NA,NA,1,NA,NA,NA,NA,NA,NA,NA,NA,NA,NA,NA,NA,"1984"
154,1,1,3,NA,NA,0,NA,NA,NA,NA,NA,NA,NA,NA,NA,NA,NA,NA,"1984"
155,1,2,2,NA,NA,1,NA,NA,NA,NA,NA,NA,NA,NA,NA,NA,NA,NA,"1984"
156,2,2,3,NA,NA,0,NA,NA,NA,NA,NA,NA,NA,NA,NA,NA,NA,NA,"1984"
157,2,1,3,NA,NA,0,NA,NA,NA,NA,NA,NA,NA,NA,NA,NA,NA,NA,"1984"
158,1,2,2,NA,NA,0,NA,NA,NA,NA,NA,NA,NA,NA,NA,NA,NA,NA,"1984"
159,2,1,3,NA,NA,1,NA,NA,NA,NA,NA,NA,NA,NA,NA,NA,NA,NA,"1984"
160,2,1,3,NA,NA,0,NA,NA,NA,NA,NA,NA,NA,NA,NA,NA,NA,NA,"1984"
161,1,2,2,NA,NA,0,NA,NA,NA,NA,NA,NA,NA,NA,NA,NA,NA,NA,"1984"
162,1,2,3,NA,NA,1,NA,NA,NA,NA,NA,NA,NA,NA,NA,NA,NA,NA,"1984"
163,1,2,3,NA,NA,1,NA,NA,NA,NA,NA,NA,NA,NA,NA,NA,NA,NA,"1984"
164,1,2,2,NA,NA,1,NA,NA,NA,NA,NA,NA,NA,NA,NA,NA,NA,NA,"1984"
165,2,2,3,NA,NA,0,NA,NA,NA,NA,NA,NA,NA,NA,NA,NA,NA,NA,"1984"
166,1,2,3,NA,NA,0,NA,NA,NA,NA,NA,NA,NA,NA,NA,NA,NA,NA,"1984"
167,1,2,3,NA,NA,0,NA,NA,NA,NA,NA,NA,NA,NA,NA,NA,NA,NA,"1984"
168,2,1,2,NA,NA,1,NA,NA,NA,NA,NA,NA,NA,NA,NA,NA,NA,NA,"1984"
169,2,1,3,NA,NA,0,NA,NA,NA,NA,NA,NA,NA,NA,NA,NA,NA,NA,"1984"
170,2,2,3,NA,NA,0,NA,NA,NA,NA,NA,NA,NA,NA,NA,NA,NA,NA,"1984"
171,1,1,2,NA,NA,0,NA,NA,NA,NA,NA,NA,NA,NA,NA,NA,NA,NA,"1984"
172,2,2,3,NA,NA,1,NA,NA,NA,NA,NA,NA,NA,NA,NA,NA,NA,NA,"1984"
173,1,1,2,NA,NA,1,NA,NA,NA,NA,NA,NA,NA,NA,NA,NA,NA,NA,"1984"
174,2,1,3,NA,NA,0,NA,NA,NA,NA,NA,NA,NA,NA,NA,NA,NA,NA,"1984"
175,2,1,3,NA,NA,0,NA,NA,NA,NA,NA,NA,NA,NA,NA,NA,NA,NA,"1984"
176,2,1,2,NA,NA,1,NA,NA,NA,NA,NA,NA,NA,NA,NA,NA,NA,NA,"1984"
177,2,1,3,NA,NA,0,NA,NA,NA,NA,NA,NA,NA,NA,NA,NA,NA,NA,"1984"
178,1,2,2,NA,NA,1,NA,NA,NA,NA,NA,NA,NA,NA,NA,NA,NA,NA,"1984"
179,1,1,2,NA,NA,1,NA,NA,NA,NA,NA,NA,NA,NA,NA,NA,NA,NA,"1984"
180,1,2,3,NA,NA,0,NA,NA,NA,NA,NA,NA,NA,NA,NA,NA,NA,NA,"1984"
181,1,1,2,NA,NA,0,NA,NA,NA,NA,NA,NA,NA,NA,NA,NA,NA,NA,"1984"
182,1,2,2,NA,NA,1,NA,NA,NA,NA,NA,NA,NA,NA,NA,NA,NA,NA,"1984"
183,1,2,3,NA,NA,1,NA,NA,NA,NA,NA,NA,NA,NA,NA,NA,NA,NA,"1984"
184,1,1,3,NA,NA,0,NA,NA,NA,NA,NA,NA,NA,NA,NA,NA,NA,NA,"1984"
185,2,1,3,NA,NA,0,NA,NA,NA,NA,NA,NA,NA,NA,NA,NA,NA,NA,"1984"
186,1,2,2,NA,NA,1,NA,NA,NA,NA,NA,NA,NA,NA,NA,NA,NA,NA,"1984"
187,1,1,3,NA,NA,1,NA,NA,NA,NA,NA,NA,NA,NA,NA,NA,NA,NA,"1984"
188,1,2,2,NA,NA,1,NA,NA,NA,NA,NA,NA,NA,NA,NA,NA,NA,NA,"1984"
189,1,2,2,NA,NA,1,NA,NA,NA,NA,NA,NA,NA,NA,NA,NA,NA,NA,"1984"
190,1,2,3,NA,NA,0,NA,NA,NA,NA,NA,NA,NA,NA,NA,NA,NA,NA,"1984"
191,1,2,2,NA,NA,0,NA,NA,NA,NA,NA,NA,NA,NA,NA,NA,NA,NA,"1984"
192,1,2,2,NA,NA,1,NA,NA,NA,NA,NA,NA,NA,NA,NA,NA,NA,NA,"1984"
193,1,2,2,NA,NA,1,NA,NA,NA,NA,NA,NA,NA,NA,NA,NA,NA,NA,"1984"
194,1,2,3,NA,NA,0,NA,NA,NA,NA,NA,NA,NA,NA,NA,NA,NA,NA,"1984"
195,1,2,2,NA,NA,0,NA,NA,NA,NA,NA,NA,NA,NA,NA,NA,NA,NA,"1984"
196,1,1,3,NA,NA,1,NA,NA,NA,NA,NA,NA,NA,NA,NA,NA,NA,NA,"1984"
197,1,1,2,NA,NA,0,NA,NA,NA,NA,NA,NA,NA,NA,NA,NA,NA,NA,"1984"
198,2,1,3,NA,NA,1,NA,NA,NA,NA,NA,NA,NA,NA,NA,NA,NA,NA,"1984"
199,2,2,2,NA,NA,1,NA,NA,NA,NA,NA,NA,NA,NA,NA,NA,NA,NA,"1984"
200,1,2,2,NA,NA,0,NA,NA,NA,NA,NA,NA,NA,NA,NA,NA,NA,NA,"1984"
1,2,1,3,0,1,1,0.556644453204171,2.10426079893568,570.234908086248,570.218780331314,1167.6963994056,1167.68515884876,2176.23335786723,2176.20745571516,4299.63316687476,4299.62583607808,5311.95477190893,5311.92838103697,"01300"
2,1,2,3,0,0,1,1.43038844669627,0.807990513395453,6820.76981197018,6820.76052629296,8267.32145353127,8267.31412273273,9269.62039173767,9269.59986550361,10082.5701972768,10082.5628664782,11084.6022944422,11084.5817682082,"01300"
3,1,1,3,1,1,1,0.823594360988864,1.46206580166654,12598.0391581906,12598.0293837925,13437.7649472523,13437.7576164547,14440.0990732899,14440.0790357757,15912.975609947,15912.9687678693,16915.0262784669,16915.0067296727,"01300"
4,2,2,3,1,1,1,0.732312243541855,0.694260026757547,18425.3040570589,18425.2947713817,19173.7545707524,19173.7477286747,20180.9231136143,20180.903564821,20889.0048784018,20888.9980363231,21891.1156594632,21891.09562195,"01300"
5,1,2,2,0,1,0,0.50283285725709,2.79005889312339,23401.0229884051,23401.0137027279,23919.9862962952,23919.9799429374,24922.8848937666,24922.8614352141,27726.870599689,27726.8627801705,28729.609385767,28729.5893482529,"01300"
6,1,1,2,1,0,1,0.932081372281573,0.546318661411533,30246.8587531187,30246.8494674414,31195.2279438283,31195.2211017497,32202.8993794229,32202.872499831,32763.0915831691,32763.0847410904,33765.1872139154,33765.1671764012,"01300"
7,2,1,2,1,0,1,1.1450083057307,1.42993198235126,35272.6831990816,35272.6739134043,36433.8781582294,36433.8713161517,37436.2855922449,37436.2655547317,38872.7353943624,38872.7285522847,39874.8671903787,39874.8461754257,"01300"
8,2,1,3,1,0,0,1.19318044459396,0.848440924259194,41383.8332448751,41383.8239591969,42593.1763956128,42593.1695535351,43595.7162727099,43595.6918367166,44452.7725566206,44452.7637596633,45460.3809473542,45460.3565113619,"01300"
9,2,2,3,0,1,0,0.383803669929875,0.511693836984705,46977.368849583,46977.3595639057,47377.2990603866,47377.2927070288,48382.5322726155,48382.5078366231,48907.9755170904,48907.9686750127,49910.3594925525,49910.3184400843,"01300"
10,1,1,3,0,1,1,0.389309587838397,1.68764080501478,51418.8192332769,51418.8099475987,51824.2983693378,51824.2915272592,52826.8768553026,52826.8524193093,54525.2677940456,54525.2609519679,55529.4624765776,55529.4399954649,"01300"
11,1,1,3,1,1,1,1.21578422669882,1.48448044918678,57045.8116219537,57045.8023362765,58277.7219008068,58277.7150587291,59285.9358154442,59285.9118681708,60784.0190561647,60784.0122140869,61790.0542576788,61790.0337314447,"01300"
12,1,1,3,1,0,0,0.944011023991152,0.749763452195111,63307.2361816904,63307.2268960131,64267.4226185409,64267.4157764632,65270.2146750847,65270.1887729326,66026.7295551384,66026.7227130607,67033.0785148004,67033.0540788071,"01300"
13,2,2,3,1,0,0,0.483474663721609,0.889299813441539,68550.1343490891,68550.125063411,69049.9007409969,69049.8938989192,70055.6778984265,70055.6505301138,70958.3977221744,70958.3899026569,71960.8071110696,71960.7826750763,"01300"
14,1,2,2,1,0,1,0.746414255015225,1.35337548291409,73475.855772906,73475.8459985079,74238.4581474978,74238.4513054201,75241.0415206617,75241.0112200305,76615.3051420171,76615.2982999384,77619.0653525973,77619.0448263632,"01300"
15,1,1,3,1,0,1,0.762763889110829,0.532916496773396,79136.0728036193,79136.0635179421,79914.9906019168,79914.9837598391,80917.6981099248,80917.6741626523,81471.9127810989,81471.9064277411,82477.9264789401,82477.9064414259,"01300"
16,1,2,2,1,1,1,0.559834209056135,0.478595773389316,83994.9539674763,83994.9441930801,84570.9152061278,84570.9083640492,85573.720946827,85573.6969995536,86059.2592375381,86059.2523954604,87061.8025356736,87061.7663704045,"01300"
17,2,2,3,1,1,0,0.576446285715065,1.6449902230961,88569.9250596967,88569.9157740194,89162.7999151582,89162.7911182009,90165.5719341878,90165.5484756343,91817.338021134,91817.3311790563,92819.8954921458,92819.836845763,"01300"
18,1,0,2,1,1,0,0.819144566691648,0,94330.4449989786,94330.4357133014,95165.7542266939,95165.7473846162,96170.0183074456,96169.9943601731,0,0,0,0,"01300"
19,1,2,3,1,1,1,0.750804914210676,0.409679431477343,100174.132351202,100174.123065525,100941.519293195,100941.512451116,101947.229496003,101947.181601457,102370.372433854,102370.365591777,103372.910356072,103372.886897518,"01300"
20,1,2,2,1,1,1,0.705728815641123,0.781530731618659,104883.052270544,104883.042496147,105604.990709435,105604.983867357,106607.739269911,106607.714345199,107400.59340365,107400.586072853,108407.933975902,108407.914427108,"01300"
21,2,1,2,1,0,0,0.404251220025799,0.613348055955612,109925.598755132,109925.589469456,110346.030275218,110346.02343314,111348.886354062,111348.862895509,111974.525966175,111974.519124097,112977.064865832,112977.03603136,"01300"
22,1,2,2,1,1,0,0.52011936731833,1.06826022811038,114483.859538004,114483.849274887,115020.23153592,115020.224693841,116023.27332831,116023.248403597,117104.630034181,117104.623192104,118109.972230937,118109.948283665,"01300"
23,2,1,3,1,1,1,0.717512340112989,0.60024645402973,119626.656638135,119626.647352458,120360.324353595,120360.317511517,121366.221736109,121366.195345237,121979.73962961,121979.732787531,122985.527538875,122985.494794644,"01300"
