"trial_num","choice1","choice2","state","pos1","pos2","rts1","rts2","money","stim1.ons.sl","stim1.ons.ms","stim2.ons.sl","stim2.ons.ms","choice1.ons.sl","choice1.ons.ms","choice2.ons.sl","choice2.ons.ms","rew.ons.sl","rew.ons.ms","id"
1,0,0,0,0,1,0,0,0,12.0094412565231,11.9922411292791,0,0,0,0,0,0,0,0,"00829"
2,1,2,3,0,0,0.89717299984477,1.28441459676833,0,9523.15955047309,9523.14837518334,13531.9622808844,13531.9541208297,10436.7563840449,10436.7411339134,14837.7154617161,14837.6992315799,17539.4216253608,17539.4103152752,"00829"
3,2,2,3,0,1,0.864364773209672,0.964870066236472,0,19051.7994995862,19051.7891943008,23053.4412375242,23053.4316274375,19931.63523826,19931.6283082068,24027.4550996274,24027.4482647777,27054.7603932768,27054.7511779964,"00829"
4,2,1,2,1,1,0.704326281877002,1.06084058982378,1,28563.6293190271,28563.6199189574,32565.2805522382,32565.2701073438,29283.4509427994,29283.4439427406,33635.3308278471,33635.3235977739,36566.6932035238,36566.6839086562,"00829"
5,2,2,3,0,1,0.720281081172288,0.67701945862791,0,38075.467123732,38075.4578288496,42077.0419463366,42077.0301162302,38811.2506351918,38811.2433151305,42763.294501543,42763.2867714763,46078.5114080906,46078.5009279996,"00829"
6,1,2,2,1,0,0.384243551219697,1.9560079005314,1,47587.355294019,47587.3457539529,51600.2582772523,51600.2476319671,47987.065656513,47987.0582916588,53570.8965471685,53570.8890071064,55602.7094968706,55602.6993315816,"00829"
7,2,1,2,0,0,0.864109225338325,1.22025940455205,0,57118.2381958961,57118.2285058051,61119.801733613,61119.7913583219,57995.5005591959,57995.493083939,62346.938855499,62346.9311754405,65124.5343662649,65124.525246188,"00829"
8,2,1,3,1,1,0.631778366689105,1.99626587740204,1,66627.8899883181,66627.881028235,70629.4333954453,70629.4222105742,67274.9980899692,67274.9913199097,72634.8075784594,72634.8006183952,74630.7819462419,74630.7733313739,"00829"
9,1,1,2,0,0,0.655505036513205,1.09975050047797,0,76139.5560416281,76139.5456615537,80141.1207689643,80141.1099440604,76810.5901299119,76810.5827546418,81250.4085684568,81250.4004783928,84142.4771649987,84142.4685397446,"00829"
10,1,2,3,0,1,0.615514611388789,0.820168333812035,0,85651.3998263925,85651.3895111084,89652.9534388185,89652.9425487369,86282.452929616,86282.4458295554,90482.3960391581,90482.3885790855,93660.1328962445,93660.1198861599,"00829"
11,0,0,0,1,0,0,0,0,95180.8631520867,95180.8515819907,0,0,0,0,0,0,0,0,"00829"
12,1,2,2,0,1,0.567051615333185,1.46759998287598,1,104691.731773853,104691.723058969,108693.320126548,108693.309216455,105274.348944783,105274.342119917,110170.221141756,110170.2132117,112699.794068336,112699.785708264,"00829"
13,2,1,3,1,1,0.742714673790033,0.82738907118619,1,114203.664939299,114203.655559227,118205.240421906,118205.230421826,114961.887525082,114961.880045027,119043.021969363,119043.012829289,122211.717618927,122211.708108857,"00829"
14,1,2,2,1,0,0.543120682239532,0.45919889085053,1,123715.529389426,123715.520499349,127717.040131509,127717.030026227,124274.110462874,124274.103332818,128185.610720083,128185.603434816,131718.440787509,131718.429942623,"00829"
15,2,1,3,1,1,0.806776841491228,2.38742286665365,1,133227.333058655,133227.323493779,137228.792900324,137228.783215448,134049.631212234,134049.624046981,139625.580379829,139625.573094577,141230.131236225,141230.122230962,"00829"
16,1,2,2,0,0,0.567090173994075,1.78717168944422,1,142739.175703391,142739.166083321,146740.679915428,146740.669720545,143321.775334194,143321.768514141,148537.27509819,148537.267903328,150742.022381365,150742.013651296,"00829"
17,1,1,3,1,1,1.1987580806308,1.02914850045636,0,152251.476471797,152251.465716913,156252.997249171,156252.986579075,153465.292737529,153465.285447478,157291.058228463,157291.051133603,160254.290499508,160254.281419441,"00829"
18,2,1,3,0,0,0.798825603080331,0.795597918899148,0,161762.860792875,161762.850868002,165764.456280828,165764.414135307,162577.199012771,162577.19209753,166569.287104294,166569.279174224,169765.722045764,169765.71264568,"00829"
19,1,2,2,0,0,0.60708713385975,0.746706261954387,0,171274.700237587,171274.690867513,175290.069850549,175290.059750468,171897.289243504,171897.282303452,176048.964886904,176048.957211643,179291.440286711,179291.429566622,"00829"
20,1,1,2,0,0,0.750182188741746,0.794901657514856,0,180803.259596065,180803.250275999,184804.78266345,184804.772053361,181568.96013166,181568.953136817,185608.988377094,185608.981051832,188806.566542521,188806.556312427,"00829"
21,2,2,2,0,1,0.790158753734431,0.81875520896574,0,190315.122200966,190315.112616092,194316.613622889,194316.602808014,191120.788116291,191120.78079623,195144.699192792,195144.69149752,198323.177485421,198323.167900532,"00829"
22,1,1,2,0,1,1.05441354258801,0.81868887260498,1,199826.984841064,199826.975590989,203828.648714364,203828.638654292,200896.865460113,200896.858414859,204656.482937053,204656.475551799,207835.06180048,207835.053090408,"00829"
23,1,1,2,0,0,1.7255904719932,0.908286378631601,1,209339.892809123,209339.882304251,213341.487297088,213341.477816999,211080.327242613,211080.319282547,214258.651199192,214258.640479118,217342.836927876,217342.819747746,"00829"
24,2,1,3,0,0,1.94211383417132,2.19470897557039,0,218850.78695628,218850.778721407,222852.328058615,222852.317933723,220808.286536276,220808.279116228,225056.175274596,225056.168104529,226853.661099285,226853.643844336,"00829"
25,1,2,3,1,0,1.16636566820671,0.786972514077206,0,228362.547000363,228362.538625494,232364.099427983,232364.089722708,229544.365120113,229544.35836485,233160.276467398,233160.269452155,236365.462088898,236365.452873617,"00829"
26,1,1,2,0,0,1.49417202065524,0.722853165934794,1,237874.364954904,237874.356280044,241875.96571292,241875.955077618,239384.007247239,239383.999847189,242607.997173965,242607.990369111,245877.299863592,245877.251607999,"00829"
27,1,2,2,1,1,1.56609506082896,0.898833428553189,1,247386.235455066,247386.227595016,251387.949588791,251387.939073503,248967.793057531,248967.785677478,252295.835591868,252295.827946618,255389.309674472,255389.260359272,"00829"
28,1,2,2,1,0,0.782462313829456,0.860388479501125,1,256899.014702097,256899.002392009,260900.560204476,260900.550214395,257695.981087834,257695.974217772,261769.314489692,261769.305324435,264902.000611186,264901.991225913,"00829"
29,2,1,3,0,1,1.102443236814,2.12241284821357,0,266409.885919079,266409.876869008,270411.863574892,270411.853960022,267527.803277612,267527.796332359,272543.200115591,272543.192440718,274417.861612886,274417.813092485,"00829"
30,1,2,2,1,1,1.21406158976606,0.738985664982465,1,275921.731963843,275921.72360377,279923.289756313,279923.279286221,277151.296130359,277151.288435489,280671.509332061,280671.502592012,283924.623456985,283924.577186599,"00829"
31,1,2,2,1,0,0.45549520602799,1.09899471669632,0,285433.684584662,285433.676014587,289435.325812593,289435.3154625,285904.661232486,285904.652007207,290543.354772031,290543.347946763,293436.722648963,293436.670013353,"00829"
32,1,0,3,1,1,1.79803062672727,0,0,294946.199049577,294946.190829515,298947.796492368,298947.78621228,296758.980097026,296758.972216979,0,0,0,0,"00829"
33,1,2,2,1,0,1.18240696653083,0.418392604406108,1,304462.140207112,304462.130592227,308463.778125405,308463.766780123,305655.162811294,305655.155966431,308903.159585267,308903.152845204,312465.292332321,312465.277312204,"00829"
34,1,1,2,0,1,1.84643591458735,1.11481323844055,1,313969.140528321,313969.13143304,317971.417521328,317971.407486454,315831.01627332,315831.009413272,319094.719807744,319094.711902872,321972.834582672,321972.782437444,"00829"
35,2,2,3,0,0,1.08646029375086,0.938416360426345,0,323480.886407077,323480.877797008,327482.537665486,327482.527090207,324582.877043009,324582.870362952,328430.477393806,328430.469843745,331484.06317769,331484.054247618,"00829"
36,2,2,3,1,1,2.27832349487289,0.588233176444191,0,332993.004844025,332992.994183943,336994.786263481,336994.776098192,335286.606312841,335286.598542765,337591.907330453,337591.898090377,340996.151304409,340996.103258803,"00829"
37,1,2,2,1,1,0.456095281871967,0.610914795222925,0,342505.51653412,342505.505409226,346507.177407414,346507.166752532,342976.368886128,342976.359286055,347126.345770761,347126.339060694,350512.745061949,350512.733951852,"00829"
38,1,2,3,0,0,0.853851018080604,0.426892918228987,1,352016.581567839,352016.572117776,356018.262626082,356018.252806023,352886.100523993,352886.092788741,356455.041985527,356455.032155454,360019.876689002,360019.864914104,"00829"
39,2,2,3,1,1,0.718315428603091,0.547621949895984,0,361530.363808095,361530.355208039,365532.04609637,365532.036076277,362262.114652112,362262.107822046,366087.730941832,366087.722601771,369533.473467782,369533.460917667,"00829"
40,1,1,2,0,0,0.60647240903927,0.930166894439026,0,371040.323222578,371040.312617689,375053.231775835,375053.221415758,371662.113652095,371662.10702683,375997.846102759,375997.8385427,379056.663158491,379056.651928395,"00829"
41,2,1,3,1,0,0.925781613521394,0.770474276898312,1,380568.725939795,380568.718164936,384570.492293924,384570.481879041,381509.972989768,381509.966494918,385349.991139919,385349.984515056,388571.96944575,388571.919845358,"00829"
42,1,2,2,0,1,0.597763524579932,1.12171857582871,0,390080.476543799,390080.467783734,394093.776430205,394093.766500115,390693.801085606,390693.794360355,395229.787308291,395229.779898226,398095.234577075,398095.223686978,"00829"
43,0,0,0,0,0,0,0,0,399608.993617147,399608.977187008,0,0,0,0,0,0,0,0,"00829"
44,1,1,3,1,1,0.652895760445972,0.626763643653248,1,409120.972257763,409120.963542894,413122.737191886,413122.726611808,409789.366554931,409789.358954862,413758.622878969,413758.614204109,417124.210638881,417124.200913593,"00829"
45,2,1,3,0,1,0.637983305932721,0.577523965563159,1,418635.396248356,418635.387428284,422637.165887311,422637.155702427,419287.392634317,419287.3779542,423221.128719017,423221.121404156,426638.644284338,426638.594498754,"00829"
46,2,1,3,1,1,0.66111227782676,0.665354655939154,0,428144.619116947,428144.609966859,432146.392416328,432146.38134104,428821.249705181,428821.243175134,432820.867912143,432820.836246669,436147.910318479,436147.861932874,"00829"
47,1,2,2,1,0,0.428797047658009,0.87359719707456,0,437656.45355162,437656.444696739,441659.327074602,441659.317324534,438100.79293634,438100.785826266,442540.89863719,442540.890832305,445660.853816822,445660.844196752,"00829"
48,1,1,2,0,1,0.820934494753601,0.704378778114915,1,447168.490687922,447168.481087849,451181.450441584,451181.440686718,448004.765233308,448004.751948014,451900.529664218,451900.522214159,455183.001213998,455182.986223876,"00829"
49,2,2,2,0,1,0.708366749400739,0.976848987891572,1,456696.87522018,456696.866984919,460698.643754333,460698.632334247,457420.743491128,457420.736161083,461684.545026347,461684.537866294,464700.141731113,464700.096115962,"00829"
50,1,1,2,0,1,1.24372739333194,1.06520998224732,0,466208.729609832,466208.720894963,470210.450093582,470210.439953506,467468.288026288,467468.280071422,471284.780798241,471284.772498161,474211.979845822,474211.970165744,"00829"
51,1,2,3,1,1,0.827360395123833,1.55958241975168,1,1.03656309843063,1.02856303751469,4015.61735974252,4015.60735966265,843.913731321692,843.905916050076,5588.07340458035,5588.06603933871,8018.21217051148,8018.20240561664,"00829"
52,2,2,3,0,1,0.691246032030904,0.831820962455822,0,9529.64777198434,9529.63887192309,13531.4621016979,13531.4519164115,10236.7907491326,10236.7730389833,14372.138687104,14372.1318118572,17533.0701045692,17533.0564244539,"00829"
53,1,2,2,0,1,1.47661566767783,0.599292143262574,1,19043.4130773097,19043.4043920487,23045.3710529804,23045.3593376726,20533.6160437316,20533.604268834,23651.7204785645,23651.7126037031,27055.8728117794,27055.8639317006,"00829"
54,1,1,3,1,1,0.986433403930278,0.686847894321545,1,28569.8992092013,28569.8909539282,32571.7012384236,32571.6925983429,29571.8410447389,29571.8337146789,33267.596305564,33267.5887455195,36573.3234213889,36573.276161015,"00829"
55,2,1,3,0,0,1.68245736275276,0.519204896743759,0,38081.8955551684,38081.8869199008,42083.6911195219,42083.6801494509,39779.7105424851,39779.7032076269,42611.7680241466,42611.7612940967,46085.274657011,46085.2642669082,"00829"
56,1,1,2,1,0,0.850221715896623,1.47885669977404,1,47593.9718065858,47593.9627517015,51595.8433915526,51595.8322714567,48459.3444147557,48459.3371694982,53083.2735609859,53083.2662361264,55601.8376695067,55601.8271694183,"00829"
57,1,1,2,1,0,0.930594927849597,0.750810683399322,0,57105.5649893284,57105.5564744473,61107.4320794642,61107.4215041846,58051.5641425252,58051.5569624603,61867.1089316607,61867.1011768132,65108.9713217765,65108.9615864903,"00829"
58,1,2,2,1,1,0.850505934620742,0.871008164569503,1,66617.2971483767,66617.2880683094,70619.182598263,70619.1715781838,67483.309361279,67483.3017764241,71499.1113228947,71499.1042928398,74620.8030312359,74620.7925263494,"00829"
59,2,1,3,0,0,1.39459174590593,0.854909432993736,0,76131.7331886739,76131.7220637798,80133.6132689118,80133.6031736284,77539.2139337063,77539.2072884589,80994.8661489338,80994.8590536714,84135.2218265682,84135.2106716782,"00829"
60,2,1,3,1,0,2.06656137038954,0.910872751715942,0,85640.9736125916,85640.9636525065,89643.0914895386,89643.0807294399,87723.8189053535,87723.8076852709,90562.6734461933,90562.6604060829,93644.8474587798,93644.797543183,"00829"
61,0,0,0,1,0,0,0,0,95152.915728122,95152.9052080512,0,0,0,0,0,0,0,0,"00829"
62,0,0,0,1,0,0,0,0,104664.555516452,104664.546111166,0,0,0,0,0,0,0,0,"00829"
63,2,1,2,0,0,0.426321387843927,0.646630491959513,1,114176.50603205,114176.496881977,118178.442892343,118178.432637468,114618.335596681,114618.328091428,118834.234668672,118834.226918608,122182.04710637,122182.036566287,"00829"
64,2,1,3,0,0,1.13061200799712,0.543321776523953,1,123688.378557026,123688.363761723,127690.312872499,127690.302227214,124834.459050477,124834.452390432,128242.500349998,128242.492854744,131692.077456623,131692.066581324,"00829"
65,2,1,3,1,1,0.754532215170912,0.40706525024143,0,133200.253802031,133200.244721964,137202.216522545,137202.206792459,133970.221346572,133970.213216498,137618.073649392,137618.066914544,141207.57210058,141207.562280506,"00829"
66,1,2,2,1,0,0.434414304356324,0.00805583919282071,1,142712.007460862,142711.998925999,146714.86034368,146714.851593614,143161.960135683,143161.953425631,146730.893837154,146730.886997089,150716.524566993,150716.513436899,"00829"
67,2,1,3,0,0,1.54645014469861,0.391207664404646,1,152223.94588156,152223.936996296,156226.010198087,156225.999008,153785.831416652,153785.824996606,156625.925262198,156625.918332145,160232.23550269,160232.224417791,"00829"
68,2,2,3,1,0,0.315768385058618,0.111016153503442,1,161735.876061812,161735.867531747,165737.886863098,165737.876887813,162067.042926341,162067.033836275,165857.565725327,165857.558835268,169739.701402411,169739.691187531,"00829"
69,2,1,2,1,1,0.05039031621709,0.0311012135498459,0,171247.624935806,171247.615780935,175249.620596975,175249.609306887,171313.476947829,171313.469427764,175289.495770767,175289.488180712,179251.457896471,179251.447786376,"00829"
70,2,1,3,1,1,0.362403108141734,0.887109134768252,1,180759.477615833,180759.469040558,184762.293228343,184762.283073068,181137.3246786,181137.317768544,185657.31700854,185657.310288489,188764.027162224,188764.016662136,"00829"
71,2,1,3,1,0,0.5704107486672,0.672407932361239,1,190273.907531261,190273.899155989,194275.986472681,194275.976512611,190857.173247382,190857.16502212,194954.58048664,194954.572901383,198277.737436712,198277.726901814,"00829"
72,1,1,2,0,0,0.834663160407217,0.799186093427124,1,199783.062284499,199783.053374439,203785.371792972,203785.361767694,200633.25470084,200633.247995988,204593.085319474,204593.077889428,207787.053506434,207787.042781144,"00829"
73,1,1,3,0,0,2.09046863431286,1.05506074523146,0,209295.000234798,209294.991379932,213297.01763615,213297.007170856,211400.900677219,211400.893287152,214360.831386641,214360.824021399,217300.712140501,217300.699990407,"00829"
74,2,1,2,0,0,1.05836573590932,0.806930855382234,1,218806.772854179,218806.763868913,222808.825320601,222808.814220518,219880.656535268,219880.649829999,223624.552686423,223624.544681162,226810.503984034,226810.493783951,"00829"
75,1,2,2,1,1,1.11464178707683,0.662687701042159,0,228319.560086489,228319.551076412,232321.628447831,232321.618742958,229448.756614849,229448.74961479,232992.389853925,232992.38199386,236323.836450681,236323.826105416,"00829"
76,1,1,2,1,1,1.11579842948413,1.0630539143749,1,237830.542574331,237830.53388907,241832.645675972,241832.635221094,238961.865229726,238961.857969657,242904.347954795,242904.341349527,245834.419785365,245834.409740075,"00829"
77,2,2,2,1,1,0.834447039145743,1.23098797682906,1,247342.380963847,247342.371528968,251344.679797441,251344.669612154,248192.294833168,248192.288023099,252584.130273044,252584.122767776,255346.404116035,255346.39337115,"00829"
78,2,1,3,1,1,0.474393563446938,0.639350834360812,1,256854.162928104,256854.153803229,260856.224084601,260856.21447973,257344.077637419,257344.069662571,261504.318659365,261504.312189296,264858.020238966,264858.010234088,"00829"
79,2,2,2,0,1,0.962511108373292,1.59859639352362,1,266366.060348481,266366.051673204,270373.532458261,270373.523422986,267344.024722204,267344.01752694,271992.128367037,271992.121231779,274396.698783591,274396.687088311,"00829"
80,2,1,3,1,0,0.769042955434998,0.765713329819846,1,275911.433531478,275911.424446195,279913.545473158,279913.534023076,276695.834751472,276695.827141419,280687.83658269,280687.828477427,283915.498053983,283915.487878695,"00829"
81,2,1,3,1,1,0.281221312878188,0.477837227444979,1,285423.148975194,285423.140349925,289425.190066323,289425.180501446,285719.851128802,285719.844263569,289911.777039021,289911.768978968,293427.021980971,293427.012566105,"00829"
82,2,2,2,0,1,0.488910744374152,0.517197730689077,0,294935.026150212,294935.01778014,298947.645131171,298947.636035889,295439.401185215,295439.393875152,299479.683037475,299479.676242203,302949.590471521,302949.579996645,"00829"
83,1,2,2,0,0,0.95168490492506,1.45944831387897,1,304487.392473936,304487.380879045,308489.520486176,308489.510636076,305447.435634285,305447.428679436,309967.2361027,309967.229117841,312505.520164177,312505.510694087,"00829"
84,1,1,2,1,0,2.67847705255554,0.75559857787448,1,314008.960091695,314008.950501606,318012.977233812,318012.96682854,316703.084229484,316703.077029407,318775.225871816,318775.218316555,322014.805158451,322014.796238363,"00829"
85,2,2,3,1,0,0.878968406497734,0.811586321608047,0,323520.619809762,323520.610859692,327522.736891896,327522.727346614,324415.121570975,324415.114175722,328343.043839157,328343.036444291,331524.579986647,331524.570176557,"00829"
86,1,2,3,1,1,1.61511926405365,0.627689247281523,1,333032.913468108,333032.904873237,337035.04432036,337035.033545062,334663.106719658,334663.0992596,337670.992447942,337670.985192686,341036.914005309,341036.903995246,"00829"
87,2,1,3,0,0,0.823136682985933,0.483718497649534,1,342544.367594942,342544.359129667,346546.53067705,346546.520876959,343382.969533756,343382.962818503,347038.874835804,347038.868250936,350548.417362139,350548.406782061,"00829"
88,2,1,3,0,0,0.887053921789629,0.635378831328126,1,352056.222829789,352056.214124516,356058.402817219,356058.393367156,352958.727949828,352958.720924571,356702.428929433,356702.421529368,360060.431983456,360060.421413362,"00829"
89,2,2,3,0,1,1.43858785927296,0.699465139434324,0,361568.155135244,361568.146755189,365570.253276825,365570.243821949,363022.681306258,363022.669601366,366278.316376537,366278.309206486,369572.146187171,369572.136377096,"00829"
90,2,1,3,1,0,0.990954250723007,0.675034010215313,1,371079.894139156,371079.88523908,375082.158102065,375082.148101985,372086.328130633,372086.320665359,375766.183139473,375766.17383419,379084.068657354,379084.058717281,"00829"
91,2,1,2,1,1,0.358595916666673,1.05977730714949,0,380591.716743737,380591.707693666,384593.864915729,384593.854835644,380966.057763264,380966.0500184,385662.287318304,385662.280218244,388595.911992088,388595.90164721,"00829"
92,1,1,2,0,1,1.2707639043947,0.915839788780431,1,390103.685019478,390103.676049411,394105.932112262,394105.922537386,391389.88357906,391389.875313804,395030.231556654,395030.224566594,398108.28597109,398108.275846198,"00829"
93,1,1,2,1,1,1.77484801872924,0.883515465146047,1,399615.417268142,399615.408373266,403617.700651616,403617.690276325,401405.749110803,401405.742205948,404509.734057873,404509.727137819,407619.608726874,407619.598571599,"00829"
94,1,2,2,0,0,1.51084244567028,1.17952324509679,1,409127.80255723,409127.794077158,413130.024014995,413130.013874918,410653.65488404,410653.647423983,414317.600390807,414317.592255548,417131.931450248,417131.921945378,"00829"
95,1,1,2,1,0,1.47090076511085,0.818922129677958,0,418639.21366851,418639.205203637,422653.767710149,422653.758074865,420125.505428836,420125.498503983,423485.533174261,423485.525924206,426663.76739493,426663.759694874,"00829"
96,1,2,3,1,1,0.845847485703416,0.650153195354505,0,428171.480851844,428171.472276583,432173.749779999,432173.739744723,429029.307714462,429029.30008921,432845.336992696,432845.32871744,436175.707805663,436175.698030382,"00829"
97,1,1,2,0,1,0.91057231349987,1.10649982193718,1,437679.773152992,437679.764282927,441682.044936359,441682.03537108,438605.553869233,438605.547369182,442797.080846652,442797.073416591,445684.025817007,445684.016672149,"00829"
98,1,1,3,0,1,0.894515971900546,0.818761369650019,0,447191.408106074,447191.398826003,451193.676294208,451193.66688934,448101.33488068,448101.328125432,452020.954462439,452020.947082385,455199.430470243,455199.422280177,"00829"
99,2,2,3,1,0,1.35848981847812,1.10698029641935,0,456703.334141463,456703.32330139,460705.699820399,460705.690365523,458077.14702718,458077.140681937,461820.95727247,461820.950072408,464707.698321581,464707.688156307,"00829"
100,1,1,2,0,0,2.86229031889525,0.900260000373237,1,466215.145635962,466215.137015909,470217.456784457,470217.447864398,469092.809227273,469092.801312417,471126.183329478,471126.174824208,474219.480345845,474219.469785765,"00829"
101,2,1,3,1,0,1.09632585725922,0.772244431063882,1,0.441458329558372,0.434343472123146,4002.75801205635,4002.74884678423,1100.21792173386,1100.21095648408,4788.15718005598,4788.14985518157,8004.81758333743,8004.80712845922,"00829"
102,2,1,2,1,0,0.431562245590612,0.588208933957503,0,9517.14990198612,9517.14109192789,13519.5931367278,13519.5831666589,9964.03207705915,9964.02468699217,14115.9635924995,14115.9565024376,17521.6843182743,17521.6748981923,"00829"
103,1,2,2,1,1,0.943706597958226,0.596199672698276,1,19028.877071023,19028.8684957474,23031.1989195943,23031.1895343065,19987.9903287292,19987.9835038632,23635.8308514506,23635.8239213824,27033.3699269593,27033.3588116616,"00829"
104,2,1,3,1,0,1.06363721218077,0.643814528812072,1,28544.7026724219,28544.6942423433,32548.1271298081,32548.1177549362,29619.7739029825,29619.76655294,33211.9675757289,33211.9609156847,36550.2734369785,36550.2256965935,"00829"
105,2,1,3,1,0,0.478647933312459,0.611779602535535,1,38069.2474339753,38069.2388487011,42071.5716325641,42071.5620472878,38563.4065420479,38563.3991319984,42691.7751989961,42691.7686741352,46077.1676021367,46077.1590420604,"00829"
106,2,2,2,1,0,0.407214515609667,0.45178786739416,1,47581.1629140973,47581.1525292099,51583.5108580738,51583.5016680062,48003.7431799471,48003.7366898954,52043.6403391212,52043.6335638613,55585.5739293844,55585.5638393164,"00829"
107,1,2,2,1,1,0.367250412746216,0.907827305709361,0,57092.8962679654,57092.8879730999,61095.2408119142,61095.230616644,57475.6820702404,57475.6744801849,62011.5080420524,62011.5016368032,65097.4337194711,65097.4240941852,"00829"
108,1,1,2,0,0,1.35922831960488,1.13989196742477,0,66605.4784986228,66605.469183743,70608.1884103119,70608.1774154156,67979.4387702942,67979.4311002493,71755.4114532769,71755.4048380256,74610.2682421356,74610.2584120631,"00829"
109,2,2,2,1,0,0.607103339920286,0.530460588430287,0,76116.546837166,76116.5380623043,80129.5781014264,80129.5693913549,76739.1639681011,76739.1566480547,80674.8701989502,80674.8633989096,84131.6480179876,84131.6385478973,"00829"
110,2,2,3,0,1,0.998499711087788,0.723016091913451,0,85645.1588112712,85645.1496511847,89647.551235199,89647.5416451246,86659.1271030009,86659.1203129441,90378.9359562844,90378.9289262146,93649.6592720598,93649.6498972028,"00829"
111,1,2,2,1,1,1.87035364277835,0.363195268670097,1,95156.9961307645,95156.9880107045,99159.3675797284,99159.3576496542,97042.8307226449,97042.8227925748,99531.0998087972,99531.090163514,103161.469761744,103161.460141674,"00829"
112,1,2,2,1,1,0.854115762878791,0.562123295909259,0,104668.867110923,104668.858550861,108673.601773605,108673.593443543,105538.466122523,105538.459072471,109258.463787705,109258.45701766,112675.701270401,112675.691565529,"00829"
113,2,1,3,1,0,0.734280457341811,0.787040284223622,0,114180.667800128,114180.658230066,118183.075414598,118183.066264525,114930.437128291,114930.429668233,118978.499882802,118978.493007928,122185.153121218,122185.143631145,"00829"
114,2,1,2,1,0,0.742544462584192,1.25074153381865,0,123692.526860207,123692.517584935,127694.95973447,127694.94947958,124450.534514263,124450.527739018,128954.103122815,128954.09563756,131705.727580622,131705.718875751,"00829"
115,2,2,2,1,1,1.14943361855694,0.705819704453461,0,133221.054958433,133221.046103165,137223.486722693,137223.478192627,134386.022412971,134386.014852911,137937.959343672,137937.951923609,141226.084808677,141226.076308608,"00829"
116,2,2,3,0,0,0.741732382783084,0.569678260522778,0,142732.910058066,142732.901767999,146735.333102658,146735.323572591,143490.157916054,143490.151271209,147313.808740467,147313.800705209,150737.479299828,150737.469539747,"00829"
117,1,1,2,1,1,1.29315183310246,0.89007842852152,0,152244.773718178,152244.765058115,156247.391773924,156247.381753847,153553.871690959,153553.863145709,157145.663790107,157145.656240046,160249.574476585,160249.564206511,"00829"
118,2,1,3,1,1,0.837579217026359,1.15403335537121,1,161756.60664764,161756.597557575,165759.069437355,165759.060102478,162609.700482398,162609.692877531,166921.437536299,166921.430116236,169761.250279993,169761.240429908,"00829"
119,2,1,3,1,1,0.7255175672326,1.81013870421157,1,171268.474097788,171268.465012521,175270.961322486,175270.951382414,172009.475715801,172009.468735754,177089.401870012,177089.394809961,179274.816338524,179274.805558443,"00829"
120,2,1,3,0,0,1.17403127535363,1.09019363464904,0,180780.268962145,180780.260302082,184782.754272029,184782.743981957,181969.950859591,181969.939569503,185881.285830289,185881.278575018,188784.978029817,188784.969174549,"00829"
121,2,2,3,1,1,0.717542743426748,0.762222495672177,0,190293.654119238,190293.645283952,194296.175844193,194296.166944131,191025.173556179,191025.166466117,195065.171386153,195065.15809606,198298.364081711,198298.355431631,"00829"
122,2,1,3,0,0,1.14986779683386,1.2343033823272,1,199804.199413583,199804.189808324,203806.721498564,203806.71197848,200969.328279421,200969.321729362,205049.07928744,205049.072022572,207812.547605187,207812.53864029,"00829"
123,2,1,3,0,0,0.285614748019725,1.17845375921752,1,209315.912792102,209315.902627215,213318.500042796,213318.4894979,209616.939540312,209616.932525456,214505.065200523,214505.057995245,217320.758180857,217320.748950794,"00829"
124,1,2,2,0,1,0.709791583081824,0.698550231507397,0,218827.653161228,218827.643911153,222830.41064328,222830.394693151,219552.941653535,219552.934528276,223537.008910865,223537.001760811,226832.636725888,226832.627075806,"00829"
125,2,1,2,0,1,0.661588045812096,0.674253171921009,0,228341.204194427,228341.195049554,232343.735024676,232343.7249946,229016.600987598,229016.59356755,233024.572201386,233024.564751312,236345.988437891,236345.97847262,"00829"
126,2,2,3,0,0,0.877265217655804,1.05823201895691,0,237851.403071225,237851.394145951,241853.918261349,241853.908121273,238744.370999768,238744.362824902,242920.389777914,242920.383263066,245856.616572931,245856.606847644,"00829"
127,1,2,2,1,1,1.5256946534646,0.633871118858224,0,247363.206575647,247363.198145583,251365.765610918,251365.755806044,248904.384535074,248904.376955003,252008.184010267,252008.176570207,255368.019788951,255368.010034069,"00829"
128,1,1,2,0,0,0.645913181026117,1.0824458203133,0,256875.059230477,256875.050765201,260877.615705714,260877.606085643,257536.44320634,257536.436436296,261968.272746176,261968.266040921,264880.157421261,264880.137601092,"00829"
129,1,1,2,0,0,1.10987316475075,0.634437623797567,0,266386.882689849,266386.873459786,270389.452585623,270389.442585543,267512.242492735,267512.235552683,271032.115026921,271032.107906848,274391.74390395,274391.734513879,"00829"
130,1,2,2,1,1,0.869564849621383,0.970121094069327,0,275898.723384589,275898.714334518,279901.277375013,279901.266874939,276783.800370395,276783.793295145,280879.695432365,280879.687937498,283903.530783042,283903.520672962,"00829"
131,1,2,3,1,0,1.10991113238561,0.754232946957927,1,285410.555664435,285410.546769172,289413.1640753,289413.154050022,286535.973532572,286535.966842517,290175.637995094,290175.630115032,293415.450448409,293415.440713525,"00829"
132,1,2,2,0,0,2.07758056375314,0.834357917949092,0,294922.558905274,294922.549780384,298925.131625846,298925.122460976,297015.48246865,297015.475253791,299767.575595394,299767.561205283,302927.440219522,302927.430759445,"00829"
133,1,1,2,0,1,0.909284437366296,0.818569671653677,0,304434.250484005,304434.241868734,308436.844439551,308436.833809465,305359.322219372,305359.314284503,309263.615913719,309263.609088868,312442.083966672,312442.075726613,"00829"
134,1,1,2,0,0,1.35780662036268,0.68195140453463,1,313946.202809617,313946.194019541,317948.786125079,317948.776740208,315319.383319855,315319.376109809,318639.097537562,318639.089582711,321951.103093609,321951.093158737,"00829"
135,1,1,2,0,0,1.12574015422433,0.570078058924992,0,323457.927228212,323457.918068126,327460.570394561,327460.522778973,324599.183528259,324599.175753415,328038.859765679,328038.8517856,331462.909828067,331462.899943188,"00829"
136,2,1,3,0,1,0.421331643738085,1.19462044525426,1,332969.874648988,332969.866043732,336971.301330402,336971.292785138,333406.866609737,333406.85865967,338175.188431501,338175.181071445,340973.64635396,340973.637169093,"00829"
137,0,0,0,0,0,0,0,0,342489.071377367,342489.062117293,0,0,0,0,0,0,0,0,"00829"
138,1,1,2,0,1,1.42991428761161,1.01045013936528,0,351993.360616878,351993.351596802,355996.130493835,355996.120408967,353438.867815748,353438.860870883,357014.712472484,357014.705387637,359999.173733383,359999.163168103,"00829"
139,2,2,2,1,0,0.637567940095323,0.833987479796633,0,361505.290447131,361505.281207055,365507.91473332,365507.905993253,362158.423242182,362158.415632114,366350.37187776,366350.364217713,369510.272892177,369510.262352094,"00829"
140,1,2,3,1,0,0.773330699739745,0.594610519983689,0,371017.167567328,371017.157942057,375019.843818754,375019.834198669,371806.264710113,371806.257040054,375622.563265294,375622.557100445,379022.145651966,379022.136581883,"00829"
141,1,2,2,0,0,1.11765771434875,0.803470030863537,0,380528.984761864,380528.976431802,384532.892727941,384532.883333057,381662.165682122,381662.158062056,385343.370721757,385343.361156881,388535.259466872,388535.250086784,"00829"
142,1,1,2,1,1,1.78167092165677,1.21837207007047,1,390040.801426411,390040.791981131,394043.504148021,394043.494532749,391838.04168433,391838.034584269,395270.024714991,395270.01699014,398046.767994136,398046.758644059,"00829"
143,1,1,2,0,0,0.437663489195984,0.659658252014196,0,399552.634921074,399552.626321003,403555.307137251,403555.298662379,400005.907787263,400005.899831995,404223.238260701,404223.231245846,407557.821302563,407557.811292484,"00829"
144,2,2,3,0,0,0.741795403286233,0.706373357650591,0,409064.516976133,409064.507660851,413067.221207768,413067.211232483,409821.851294816,409821.844094753,413781.726153806,413781.718573734,417069.634417072,417069.625181794,"00829"
145,0,0,0,0,1,0,0,0,418576.364810914,418576.355355635,0,0,0,0,0,0,0,0,"00829"
146,1,2,2,1,0,0.213370552330161,0.602028494118713,0,428088.125174999,428088.116164938,432090.845626771,432090.83698149,428318.387241885,428318.378841832,432701.313545302,432701.30607523,436096.27265498,436096.2640201,"00829"
147,1,1,2,0,0,0.757642933211173,0.714626314904308,0,437600.217466533,437600.207151651,441602.939558312,441602.930488244,438373.218340531,438373.210760474,442325.497543976,442325.49073872,445605.354527637,445605.34459275,"00829"
148,2,2,3,1,1,1.54162694091792,0.762633538965019,0,447111.928200215,447111.919465348,451114.654287234,451114.644571945,448669.053782418,448669.045782357,451885.330032632,451885.323007375,455118.758620068,455118.748449981,"00829"
149,1,1,3,0,0,0.885778564130305,0.714338663005037,1,456623.813150495,456623.804410428,460626.674793392,460626.66472812,457525.022874981,457525.016354918,461348.904191226,461348.896755964,464629.111192882,464629.10191761,"00829"
150,2,1,3,0,0,0.653730802951031,0.71457377448678,1,466135.563854501,466135.55517444,470138.291466326,470138.283126265,466804.831883445,466804.824823394,470860.964332506,470860.956877649,474140.743735939,474140.733780667,"00829"
1,2,1,3,0,1,1.15619127621176,1.55648599975393,1,18.6416991353035,18.6240137815475,4034.91325929761,4034.90441402793,1193.20349043608,1193.19288033247,5605.76711094379,5605.75342601538,8048.62755900621,8048.61889895797,"01055"
2,2,2,3,0,1,1.26307501207339,0.907288795802742,0,9565.14550596476,9565.13590589166,13577.7821170688,13577.7731769681,10843.5459931791,10843.5383982956,14499.7562128305,14499.7482579648,17579.2089384496,17579.199198395,"01055"
3,1,1,2,1,1,1.04660162067739,0.890597437450197,0,19096.6875482798,19096.6774182022,23106.4909867346,23106.4810666442,20155.594509542,20155.5860594809,24011.6272377968,24011.6192377508,27107.9151581228,27107.905788064,"01055"
4,1,2,2,0,0,0.57394742424367,0.657716159621486,0,28626.1525540352,28626.1437191367,32628.7541248202,32628.7440447509,29211.4806618392,29211.4728017747,33307.3132533133,33307.3049532473,36639.8492136002,36639.8397487104,"01055"
5,2,1,3,1,1,0.917230490507791,0.681875662470702,1,38150.5935795307,38150.584074676,42152.1104368567,42152.100741595,39083.3511967957,39083.3435067534,42843.2941963375,42843.2865910828,46153.4678325355,46153.4586724639,"01055"
6,2,1,3,0,0,0.759812726377277,0.849892471829662,0,47662.4435795546,47662.434184283,51663.9629417062,51663.9523916245,48437.7813870609,48437.7742322087,52523.1650601029,52523.1579552591,55665.3043924272,55665.2953871489,"01055"
7,2,1,3,0,0,0.557255805906607,0.59384188320837,0,57174.2995544076,57174.2851590812,61175.8153013289,61175.8052264154,57747.0554564297,57747.0482011735,61778.9442463517,61778.9369563162,65177.117641747,65177.1084768772,"01055"
8,2,2,3,0,0,0.808729362499435,0.697137939772801,0,66690.3242625892,66690.3159224987,70698.9011259973,70698.8916211426,67510.3592676818,67510.3511827886,71410.7914363146,71410.7835410535,74700.2411119044,74700.2324618399,"01055"
9,1,2,2,1,1,1.52452360885218,0.675021308037685,1,76216.5595824718,76216.549582392,80219.559836477,80219.5499911904,77754.7268525958,77754.7190877497,80917.3144032955,80917.3064984381,84220.9660525322,84220.9559476376,"01055"
10,1,2,3,0,0,0.732284680969315,0.649166321207304,0,85726.6611633003,85726.6515479982,89728.2142657042,89728.2039556205,86474.3487848043,86474.3412047327,90386.5207969844,90386.512722075,93729.5458711684,93729.5363662839,"01055"
11,1,2,2,1,1,0.628270073619206,0.895507156732492,0,95238.3570516407,95238.3481015861,99239.9181841314,99239.907864064,95887.2520880103,95887.2404379249,100144.74712798,100144.739847928,103241.271600187,103241.262324899,"01055"
12,1,1,3,1,1,0.747969666408608,2.144168575207,1,104750.209056467,104750.199686378,108759.102737606,108759.094362766,105513.985116661,105513.977271825,110921.953895628,110921.946055561,112760.52893424,112760.517968923,"01055"
13,2,1,3,0,0,0.651832717354409,1.1358005842776,1,114278.780505031,114278.770730168,118291.531822264,118291.522892177,114947.268378139,114947.258138061,119442.100076795,119442.093291551,122292.875303,122292.866352946,"01055"
14,2,1,3,1,1,0.787150844669668,0.815672162832925,1,123807.256478041,123807.246412754,127808.761020094,127808.751069993,124610,124609.992049932,128640.768960953,128640.757510871,131815.321637362,131815.312142521,"01055"
15,2,2,2,1,1,0.755138668988366,1.95830183906946,0,133322.443479538,133322.43349427,137324.020222187,137324.010206878,134089.838868707,134089.831168652,139306.502252012,139306.493011951,141330.309197277,141330.299427211,"01055"
16,2,2,2,1,1,0.72229696623981,1.27948971858132,1,142847.74955678,142847.739206702,146849.212688506,146849.202848405,143585.572174579,143585.563979298,148138.197325557,148138.185875475,150850.529559046,150850.519638926,"01055"
17,2,1,3,1,0,0.786365844833199,1.38753783298307,1,152359.619876951,152359.61070168,156369.158098072,156369.149483174,153161.448131561,153161.440301508,157774.712832481,157774.701507598,160370.485083878,160370.475323796,"01055"
18,2,1,3,1,0,0.937152285099728,2.75041526119458,1,161888.136845112,161888.127519816,165889.639871925,165889.629931837,162841.114608914,162841.106483638,168649.395425171,168649.38787511,169890.887767106,169890.877937019,"01055"
19,2,1,3,0,0,0.913534956140211,1.05865414792788,1,171399.989674717,171399.980339825,175401.543117166,175401.532457054,172329.053542435,172329.038802296,176469.496720791,176469.488060713,179402.813352495,179402.803622425,"01055"
20,2,2,2,1,1,0.865534566954011,2.16603254215443,1,180911.827094615,180911.818364531,184913.349081576,184913.33924669,181792.893897951,181792.886027873,187088.722379774,187088.713554502,188914.684867471,188914.632847071,"01055"
21,2,1,3,0,0,0.857769894850207,0.710351740039187,1,190425.311037272,190425.301787198,194426.830479443,194426.82073456,191296.953890443,191296.946110368,195144.854503632,195144.847123593,198428.076574594,198428.067509353,"01055"
22,2,1,3,1,0,0.697367976390524,1.46225243899971,1,199936.287605107,199936.278755009,203937.831147462,203937.820967376,200648.454462439,200648.447057575,205408.590373516,205408.58166343,207939.098012775,207939.084412664,"01055"
23,2,2,2,0,1,0.577822849241784,1.51774951466359,1,209447.409449279,209447.400989205,213448.902451217,213448.891971141,210040.697455585,210040.690345496,214992.653706014,214992.646435976,217471.841229528,217471.827249408,"01055"
24,2,2,2,0,1,1.03033587973914,1.1249028671009,1,218976.717308521,218976.708378464,222988.869980961,222988.859320879,220024.210713685,220024.202823639,224128.371031761,224128.362906873,226991.397021174,226991.382565856,"01055"
25,2,1,3,1,0,1.34439681388903,1.80463354973472,0,228505.54354912,228505.533064276,232513.003258824,232512.994943976,229864.382019848,229864.374734998,234336.629523039,234336.622957766,236514.293124348,236514.28367427,"01055"
26,2,1,3,1,1,1.39940784792998,0.787508042732952,0,238033.057539254,238033.04907918,242041.231784642,242041.223059773,239447.991708726,239447.984158665,242848.09207952,242848.084279478,246042.461429685,246042.451919615,"01055"
27,1,2,3,1,1,0.574844486633083,0.704441515845247,0,247562.563580513,247562.552935243,251564.07290256,251564.062672496,248151.970165759,248151.963050514,252276.910210073,252276.9014,255565.460278481,255565.411998093,"01055"
28,1,2,2,0,0,0.5186622319452,1.06758759269724,1,257074.172328174,257074.164218128,261075.764300913,261075.754040807,257607.641161114,257607.633261055,262151.857259661,262151.849739611,265084.159758091,265084.149113178,"01055"
29,1,1,3,0,1,0.781476659292821,1.44977997572278,1,266608.688584328,266608.680454254,270615.748305976,270615.739030689,267399.406445235,267399.398755193,272079.384425074,272079.376769811,274620.498493969,274620.488323897,"01055"
30,2,1,3,0,0,0.525256654742407,1.33511265341076,1,276130.557239264,276130.548829168,280133.189435512,280133.17155537,276671.362400889,276671.354230851,281476.549732417,281476.540932298,284141.041563123,284141.032128245,"01055"
31,2,2,2,0,0,0.764416267978959,1.12035901047057,0,285659.143303126,285659.135107875,289660.730430633,289660.720035762,286439.132377863,286439.124902993,290790.348917603,290790.341707528,293662.047441185,293662.037646294,"01055"
32,2,2,2,0,0,0.749279906915035,1.08854029618669,0,295172.245352745,295172.237177908,299180.637155086,299180.628675044,295935.885267079,295935.876116991,300287.068376541,300287.060351282,303181.968055755,303181.958125651,"01055"
33,2,1,3,0,0,1.12541666120524,1.04223629657645,1,304700.447298378,304700.438613504,308702.081221431,308702.070916563,305840.539184302,305840.530079037,309752.652156025,309752.64388597,312715.973902583,312715.96419251,"01055"
34,2,1,2,1,1,1.09133143813233,2.12784406435094,1,314228.080764651,314228.072084576,318229.812758505,318229.802328408,315334.931159437,315334.923199385,320366.761248887,320366.753548801,322243.601778805,322243.592203528,"01055"
35,2,1,3,1,0,0.682602883491199,1.67843419016572,0,323758.671749383,323758.660774082,327773.149799973,327773.141455144,324454.774798214,324454.766482919,329462.641251117,329462.633651078,331774.453585625,331774.443950355,"01055"
36,1,1,2,0,1,0.561722666461719,0.596037918556249,0,333287.070021361,333287.060131282,337288.664634109,337288.654104024,333862.463309705,333862.455219626,337894.515316099,337894.507166058,341293.277271032,341293.268266141,"01055"
37,2,1,3,0,1,0.617669689236209,0.892634933174122,0,342797.232257873,342797.223082602,346798.897821188,346798.888125896,343430.265112102,343430.256882071,347703.195370346,347703.188790292,350808.233270645,350808.224315792,"01055"
38,1,2,2,0,1,0.649014268768951,0.820527222094825,1,352333.344371557,352333.335876703,356335.023470193,356335.013804883,352990.175446212,352990.167496145,357174.018836945,357174.011002094,360350.516498923,360350.507148862,"01055"
39,1,1,3,0,0,0.647853785514599,1.15367243779474,0,361870.783156276,361870.774881005,365872.44161433,365872.431579441,362534.287724286,362534.279974222,367038.217505723,367038.210445702,369873.845640779,369873.836025476,"01055"
40,1,2,2,1,0,0.903760913992301,0.626983328518691,1,371382.710966468,371382.701291621,375397.064021319,375397.055416435,372302.001796007,372301.994485945,376041.733623862,376041.724203795,379398.476537794,379398.466882527,"01055"
41,1,2,2,1,1,0.750493936619023,0.819798485987121,1,380911.300135195,380911.291505128,384912.957303643,384912.947128385,381681.503946841,381681.49492678,385741.957790434,385741.950710416,388914.372829765,388914.362544894,"01055"
42,1,2,2,0,0,0.838928154087625,0.658747487846995,1,390425.235996693,390425.227491826,394432.565525323,394432.556495249,391277.59118551,391277.583445489,395109.481990665,395109.474190593,398433.980941862,398433.971711785,"01055"
43,1,2,2,1,0,0.966446593403816,1.9003045411373,0,399951.69838357,399951.690558314,403953.36555171,403953.355806857,400933.671964169,400933.664549321,405867.671466172,405867.663641304,407959.812108487,407959.8023884,"01055"
44,1,2,2,0,0,0.814198339125142,0.924866302404553,1,409463.641983956,409463.632443845,413465.274686992,413465.264806926,410293.270766169,410293.263200909,414399.35577485,414399.345514774,417466.702103615,417466.692383528,"01055"
45,1,1,3,1,0,0.870265384786762,1.37088911869796,1,418977.870892972,418977.862872899,422979.593951553,422979.583976656,419861.177504212,419861.169849336,424357.156832069,424357.149021983,426981.046998382,426981.038073093,"01055"
46,1,1,3,0,0,1.06219701163354,0.930552899080794,0,428487.285098284,428487.275868207,432489.018772155,432489.009046853,429564.974414587,429564.966519743,433430.197601587,433430.188281506,436492.484724671,436492.473239779,"01055"
47,1,1,3,1,0,0.942126110516256,2.3468251285085,0,437999.968524545,437999.958874464,442001.707793683,442001.698213607,438956.734333873,438956.725973815,444356.744773954,444356.736668706,446025.381727844,446025.372642994,"01055"
48,1,2,2,1,0,1.03662019484909,1.16075276595075,0,447544.332964659,447544.323944598,451557.461139679,451557.451194406,448596.497891992,448596.490371913,452732.649406016,452732.642471135,455558.910731286,455558.901656002,"01055"
49,2,1,3,0,0,1.73234253140981,1.09590110206045,0,457072.966183722,457072.956953645,461076.79253915,461076.777588993,458820.793021142,458820.78575629,462180.384633064,462180.376893014,465078.249695987,465078.240255892,"01055"
50,1,2,3,1,1,1.02022676967317,1.08043117215857,0,466584.781358242,466584.772728175,470586.49053672,470586.480296642,467620.53002423,467620.521738976,471676.149233997,471676.141419113,474587.974663794,474587.96484372,"01055"
51,1,2,2,0,1,2.19379458783078,0.677542608202202,0,1.02045813202858,1.01197808980942,4002.80658242106,4002.79556235671,2203.64451393485,2203.63717389107,4699.43056544662,4699.4225653708,8004.34312474728,8004.28901427984,"01055"
52,2,2,2,0,0,0.592462757165777,1.82079388422426,1,9522.9248534143,9522.91565811634,13530.7036804259,13530.6946103573,10131.2038096189,10131.1957543492,15371.2472947538,15371.2393398881,17532.243737936,17532.2338626683,"01055"
53,2,2,2,1,1,1.06413186050486,0.964802230417263,0,19051.5681773126,19051.5601672828,23054.5428963304,23054.5248209834,20131.1234489679,20131.1150836945,24027.1170417368,24027.1086268425,27056.0181881189,27056.0085128546,"01055"
54,2,2,2,0,0,0.544325439666864,1.07638450918603,1,28563.4100620747,28563.3956819773,32565.1503260136,32565.140165925,29123.1410551071,29123.1333998442,33652.4434043467,33652.4338794649,36566.6959983706,36566.6860782504,"01055"
55,1,2,2,0,0,0.495496311428724,0.924138532747747,1,38091.8288246393,38091.8201045394,42093.6366538703,42093.6267989874,38602.9088332653,38602.9013780057,43026.8562948406,43026.8486447632,46101.7292986214,46101.7205285728,"01055"
56,1,2,2,1,0,0.550841324205976,0.80354361719219,1,47620.3209125698,47620.3124224842,51622.1484419703,51622.1387971044,48186.7738889754,48186.7663089037,52434.7881382704,52434.780673027,55623.8318706453,55623.8230805695,"01055"
57,2,2,2,0,0,0.486858112330083,0.985230238555232,0,57132.4562944472,57132.4477795959,61134.2977443635,61134.288349092,57634.7085224688,57634.6987375915,62128.3510916233,62128.3433415592,65135.8388315141,65135.8294614255,"01055"
58,1,2,2,0,0,0.89256852446124,0.859551541827386,1,66644.3406647146,66644.3316546381,70646.1847542524,70646.1754541993,67552.2279178202,67552.2204425633,71514.4866006672,71514.4793206155,74647.7812822163,74647.7714621425,"01055"
59,1,2,2,1,1,1.16685977132875,1.06628613296198,1,76156.2122097015,76156.2030695975,80158.0501843989,80158.0412491262,77338.3196865618,77338.3120464981,81250.1100356877,81250.1021207869,84159.6069616377,84159.5979015529,"01055"
60,1,2,2,0,0,0.895047528290888,1.22663809097139,0,85672.9113880694,85672.9029432237,89674.7801282406,89674.7704429328,86578.3912671208,86578.3842070699,90921.9951459467,90921.9873858988,93676.3233753741,93676.313775301,"01055"
61,1,1,2,1,1,0.846753932739375,0.826731301320251,1,95183.6902543008,95183.6808494329,99185.5496591926,99185.5403043032,96041.9364754856,96041.9290954173,100033.940396309,100033.932071447,103193.86330089,103193.853905618,"01055"
62,1,2,2,0,0,1.90151187995798,0.857552464323817,1,104708.22519058,104708.216630518,108738.175225377,108738.165260106,106625.651135206,106625.643065125,109610.037315071,109610.029975027,112747.317543328,112747.308363259,"01055"
63,1,2,2,0,1,0.780668841704028,0.920733836625004,0,114253.564168483,114253.555363238,118255.444383532,118255.434548289,115049.686347485,115049.67867744,119186.78381905,119186.775734186,122257.064221323,122257.054401219,"01055"
64,1,2,2,0,1,1.29222771528293,0.952834797295509,1,123781.933485478,123781.924950182,127783.818385333,127783.809420466,125089.782723039,125089.775568187,128745.68948552,128745.682160258,131785.506168842,131785.490368724,"01055"
65,1,2,2,0,1,0.868102545064176,0.864142160571646,0,133299.686487466,133299.676837385,137301.589262694,137301.579752624,134177.500834793,134177.492939919,138185.566529304,138185.559179246,141309.093972743,141309.083032638,"01055"
66,1,1,3,0,0,0.922367406805279,1.89518264724757,0,142835.231871843,142835.222296566,146837.156982034,146837.147687167,143777.092881531,143777.085001469,148745.176471382,148745.168771327,150838.731784642,150838.722174585,"01055"
67,1,1,3,0,0,0.650173899281071,1.0746296790312,1,152351.076128602,152351.067068517,156352.998678774,156352.989273906,153016.683023453,153016.675423384,157436.462356478,157436.454821646,160354.647001982,160354.637751877,"01055"
68,1,2,2,0,1,1.05868164816638,0.886542306223419,1,161870.190066308,161870.180406213,165872.131361842,165872.122016966,162937.056131244,162937.048506379,166776.931035459,166776.924085408,169873.763180107,169873.754040003,"01055"
69,1,2,2,0,0,0.873265623580664,0.726448802277446,1,171391.31224528,171391.303660393,175393.285351068,175393.275496185,172280.615264893,172280.607519627,176128.688894302,176128.681074232,179394.978214592,179394.968964547,"01055"
70,1,2,2,1,0,0.625772962957853,1.17477042617975,1,180903.324391365,180903.315021306,184905.275236994,184905.26603213,181544.555071205,181544.547456384,186088.839070708,186088.831360668,188906.973340571,188906.962925673,"01055"
71,1,1,3,0,0,1.05879165435908,1.59068480896531,1,190424.923844159,190424.915254116,194433.510318071,194433.500232786,191489.415210128,191489.40768525,196033.38833192,196033.37973702,198435.20685643,198435.197546393,"01055"
72,1,2,2,0,0,0.737376097706147,1.38211406214396,1,199943.762494892,199943.754020035,203945.702070385,203945.692725539,200696.539387107,200696.532412261,205346.915950119,205346.906425267,207957.823277354,207957.814197302,"01055"
73,1,0,3,0,0,1.80827429887722,0,0,209472.416069329,209472.406579226,213474.396015167,213474.386859894,211296.052633196,211296.044738352,0,0,0,0,"01055"
74,1,2,2,0,1,0.984726928960299,0.884559986763634,1,218990.324127376,218990.314762503,222992.263562888,222992.253122807,219984.298459172,219984.290869117,223896.156414032,223896.148853987,226994.005026817,226993.995451957,"01055"
75,1,1,3,0,0,0.671962558379164,1.04786634305492,1,228512.549670368,228512.54131031,232515.240311921,232515.227006614,229200.089775532,229200.082600653,233571.348285556,233571.3391307,236521.043513149,236521.033293039,"01055"
76,1,1,3,1,1,0.903493475809228,0.946352807368385,1,238041.183099449,238041.174419403,242056.214704484,242056.205634445,238960.197116375,238960.188881487,243015.497263968,243015.489638686,246057.963388503,246057.952778399,"01055"
77,1,2,2,0,1,0.886450741789304,1.22060521354433,1,247573.858970851,247573.850670785,251575.83221665,251575.822841376,248471.726573795,248471.719278544,252817.919478148,252817.912088096,255578.243595928,255578.19470036,"01055"
78,1,2,2,0,1,0.965610337560065,0.962492435937747,1,257098.313636482,257098.305086434,261100.310217261,261100.301312387,258079.434685469,258079.427590221,262073.057784468,262073.047704369,265101.995290756,265101.985330671,"01055"
79,1,1,3,0,0,1.82971287867986,1.51363972987747,0,266610.263202101,266610.25396201,270612.238072693,270612.22787261,268458.44355756,268458.433732271,272135.030765027,272135.02265498,274614.002851993,274613.993181944,"01055"
80,1,2,2,1,0,1.78533273821813,1.70050685145543,1,276122.039966315,276122.031641036,280124.062037289,280124.052477211,277922.899123192,277922.890513122,281833.324271381,281833.317031324,284132.411319256,284132.401869208,"01055"
81,1,2,2,1,0,1.66842148482101,1.33665078633931,1,285667.289883107,285667.280498207,289681.779529035,289681.769674152,287351.190969527,287351.183969468,291031.577182621,291031.567052543,293683.559653252,293683.549253196,"01055"
82,1,2,2,1,0,1.01961830086657,1.51149615875329,0,295197.295053154,295197.28603828,299209.585826665,299209.575981408,296230.955862433,296230.947672367,300734.871528953,300734.863628894,303211.351625592,303211.341860741,"01055"
83,1,0,2,0,1,1.18692332084174,0,0,304724.413085282,304724.40407002,308726.475916594,308726.466351718,305926.82934463,305926.821049362,0,0,0,0,"01055"
84,1,2,2,1,0,1.13031084599788,0.846379406983033,1,314237.016396135,314237.006950825,318244.978559822,318244.969004542,315382.376763791,315382.369038939,319111.415036112,319111.404981226,322256.815889329,322256.806034446,"01055"
85,1,2,2,0,1,0.9622763232328,0.849916631326778,1,323764.904729247,323764.895929158,327779.064452499,327779.054652423,324742.572240561,324742.564720511,328642.312163293,328642.303868443,331780.850051582,331780.840986729,"01055"
86,1,2,2,1,1,0.808809243288124,0.756424118357245,0,333310.146775961,333310.138675898,337323.53336826,337323.524178177,334134.39370513,334134.385749876,338094.052247196,338094.044237137,341325.308152437,341325.298712373,"01055"
87,1,2,2,1,0,1.27998602989828,0.884576913405908,1,342840.792421132,342840.783951074,346842.902543187,346842.893017918,344134.129047841,344134.121302962,347734.046177149,347734.038912296,350880.015280128,350880.005674839,"01055"
88,1,1,3,0,1,0.805161882046377,1.26649696860113,0,352390.816616535,352390.807861269,356392.994563937,356392.984193861,353204.602446824,353204.594891548,357677.936453491,357677.928908229,360403.762144893,360403.752810001,"01055"
89,1,2,2,0,0,0.917200287542073,0.761986708355835,0,361912.572140574,361912.563060492,365914.686582297,365914.676977396,362846.925040185,362846.916280121,366685.594144732,366685.586414665,369916.510816872,369916.500886798,"01055"
90,1,2,2,1,1,0.837389127293136,1.05643274015165,0,371433.944581538,371433.934561461,375450.873591781,375450.865021706,372277.480569839,372277.472744584,376525.103310823,376525.093850732,379452.725466609,379452.715791702,"01055"
91,1,2,2,0,0,0.86850912484806,1.0801948098524,1,380974.876713783,380974.86684373,384976.997840762,384976.988310695,381853.625123799,381853.617438942,386077.362268895,386077.353943646,388987.303373218,388987.294063151,"01055"
92,1,2,2,1,0,0.723815299250418,0.871825613314286,1,390504.008382052,390503.999236792,394506.11467889,394506.105448842,391237.479579836,391237.472139776,395397.506300032,395397.498379976,398507.978898615,398507.969103754,"01055"
93,1,1,3,0,1,0.610858444793848,1.0467581062112,1,400026.811834484,400026.80204919,404041.087778687,404041.078278631,400653.101644784,400653.094319552,405101.026418209,405101.018698126,408052.051916391,408052.041816324,"01055"
94,1,2,2,1,0,0.985770762141328,0.942209356377134,1,409561.086943477,409561.077868611,413568.404372036,413568.39596194,410556.838824689,410556.831004649,414525.025120169,414525.017710149,417574.833213478,417574.824293375,"01055"
95,1,2,2,1,0,1.00148786581121,0.908607737568673,0,419083.923291385,419083.91461131,423106.874599785,423106.865154892,420100.850661606,420100.843236715,424036.737358689,424036.729383826,427108.877361,427108.867980957,"01055"
96,1,2,2,1,1,0.800613492174307,0.844208716327557,1,428612.542315125,428612.533660263,432635.085420668,432635.07695058,429444.577341408,429444.567471325,433500.848856777,433500.84161672,436637.243792742,436637.233172655,"01055"
97,1,2,2,1,1,0.911577685212251,0.595246619050158,0,438157.554515243,438157.545855165,442163.704714417,442163.695059538,439084.765092909,439084.757642835,442780.477918625,442780.470118523,446165.593629539,446165.583914667,"01055"
98,1,2,2,0,0,0.503591805056203,1.1474759830453,0,447684.391625136,447684.382649869,451686.575437397,451686.565092504,448211.628073007,448211.61925295,452844.527031004,452844.519476146,455688.497582763,455688.487347871,"01055"
99,1,2,2,1,1,0.718610012379941,0.851306154334452,0,457199.244683951,457199.234743863,461201.447881579,461201.438421488,457932.224222571,457932.215782523,462060.215946525,462060.207716435,465203.356076837,465203.346606761,"01055"
100,1,2,2,0,0,0.880955607950455,0.858859035070054,1,466710.032630235,466710.023810178,470712.234387875,470712.225082576,467611.958665669,467611.950855583,471588.02852422,471588.020604163,474714.179183424,474714.169658124,"01055"
101,1,2,2,0,1,0.899840895406669,0.817750015499769,1,0.4332634806633,0.425353407859802,4002.65865647793,4002.64821636677,908.312911719084,908.304936438799,4838.22883102298,4838.22130095959,8004.63402226567,8004.62389698625,"01055"
102,1,2,2,0,0,0.603191296977457,0.71194936032407,0,9522.20943766832,9522.20004761219,13524.4627157152,13524.4530008435,10140.1950215697,10140.1875166893,14244.2600440979,14244.2520191967,17526.4283666313,17526.4178165495,"01055"
103,1,2,2,0,0,0.531587471457897,0.847221496485872,0,19037.1637373269,19037.1553972363,23039.3885402977,23039.3787650466,19580.4272533953,19580.4200385809,23908.0838198662,23908.0759798288,27044.4909911156,27044.4821858406,"01055"
104,1,2,2,1,1,1.25048993108794,0.606660936318804,0,28566.7004288137,28566.6904735267,32576.3703209758,32576.3611308932,29827.9190685749,29827.9107933044,33196.0686537325,33196.0611136854,36586.6626184881,36586.6537384093,"01055"
105,1,2,2,1,0,0.497850632324116,0.509667402075138,0,38097.1815374494,38097.1721925735,42103.4657877386,42103.4565776587,38603.8178505599,38603.8107104897,42627.6824266613,42627.6746214032,46105.4489535987,46105.4390235245,"01055"
106,2,1,2,1,0,0.441129426821135,1.63334317010595,0,47618.9705317616,47618.9618716836,51622.0516264141,51622.0411863327,48075.6499551833,48075.6420603395,53263.2354058921,53263.227355808,55624.0521576107,55624.0433323383,"01055"
107,2,1,2,0,1,0.393165240879171,1.35002110491041,0,57131.107118845,57131.0975039899,61133.385132283,61133.3761669993,57539.5410215259,57539.5333314538,62491.6848734617,62491.6778686047,65139.0292874277,65139.019382149,"01055"
108,2,2,2,0,0,0.432367607631022,1.00585369180772,1,66661.2806354463,66661.2718601823,70663.5537136495,70663.5443983376,67107.3091236651,67107.3012236059,71677.75772205,71677.7494719923,74665.5631897151,74665.553694427,"01055"
109,1,2,2,1,1,0.527868238510564,0.554369262827095,0,76178.9072512686,76178.8982011676,80239.9728697836,80239.9594796896,76715.0604156852,76715.0518656075,80806.4102264643,80806.4010812044,84241.986251086,84241.9766110182,"01055"
110,2,2,3,1,0,0.413819709472591,1.34544886709773,0,85758.8045404255,85758.7954503894,89761.0832086504,89761.0744585991,86190.1705465615,86190.1614665091,91122.9761890173,91122.9685689509,93763.1080800593,93763.0979547799,"01055"
111,1,2,2,1,0,0.903439036483178,0.576287552481517,0,95278.583083868,95278.5748037994,99280.9122624993,99280.9022772014,96202.6003507972,96202.5913859308,99874.8804890513,99874.8728641868,103283.022214174,103283.011924088,"01055"
112,1,2,3,1,1,0.996964563819347,1.71210675471229,1,104796.767294139,104796.758309275,108813.763465315,108813.747205198,105802.851378024,105802.843402743,110546.723383784,110546.71593374,112815.808396459,112815.798321575,"01055"
113,1,2,3,1,1,1.07489022659138,1.26262311075698,0,114358.102274835,114358.093429953,118364.520476162,118364.504971236,115442.769037336,115442.761397302,119642.529485464,119642.521680176,122380.952027619,122380.941892743,"01055"
114,1,2,2,1,0,0.513558865262894,1.26862506769248,0,123902.21605292,123902.20750767,127904.589766711,127904.580331832,124426.702328801,124426.694903553,129194.23612389,129194.228503823,131906.664073318,131906.653498441,"01055"
115,1,2,3,1,0,0.922398878552485,1.82031748088775,1,133429.974505007,133429.96636492,137432.69844678,137432.687976718,134364.231309056,134364.221048981,139274.10587284,139274.097762793,141434.762508094,141434.752583206,"01055"
116,1,1,2,0,1,0.74256279799738,1.19455978268525,0,142991.809889674,142991.800319612,146993.56170851,146993.552743614,143746.26568532,143746.257840067,148210.294992357,148210.287777483,150995.604570061,150995.595024735,"01055"
117,2,2,3,0,0,0.632529694965342,1.84362876819796,0,152500.223627001,152500.213911712,156510.581009835,156510.571909785,153148.209350884,153148.199915588,158371.263765305,158371.25564006,160517.858608067,160517.84944281,"01055"
118,2,1,3,1,1,1.50962709545274,0.905774283251958,0,162032.460559666,162032.452029616,166034.848453999,166034.839118719,163553.75500524,163553.747095197,166961.914485306,166961.907000452,170046.244209945,170046.235025078,"01055"
119,1,1,3,1,1,0.741304624680197,0.552925180527382,1,171557.306663662,171557.296973586,175568.316446513,175568.307071656,172313.958086848,172313.95081681,176138.07036978,176138.061919719,179570.414083302,179570.404798418,"01055"
120,2,1,2,1,1,0.572541345056379,1.83283510137699,0,181085.693240732,181085.683745474,185087.004821241,185086.995635957,181673.797215581,181673.789880335,186929.401900411,186929.393965155,189089.120698154,189089.110908091,"01055"
121,2,1,3,1,1,0.484320701041725,0.929504149535205,1,190597.628176242,190597.61898616,194600.025170207,194600.016090155,191097.394069165,191097.386414289,195537.929238617,195537.921518564,198602.14875719,198602.139187127,"01055"
122,2,2,2,1,0,0.692554490378825,1.83284172145068,1,200109.434310675,200109.425490588,204111.921605378,204111.911945313,200817.466484934,200817.45892486,205953.101130009,205953.093059927,208157.553580433,208157.543105543,"01055"
123,2,1,3,0,0,0.729061675170669,0.941842797765275,1,209684.991729945,209681.300190389,213692.296393573,213692.285498291,210455.028540224,210455.019230157,214640.887437105,214640.879802227,217694.68458268,217694.6744726,"01055"
124,2,1,3,1,0,0.560623568890151,1.38082055127597,1,219224.838178724,219224.829788625,223227.25753805,223227.247687995,219792.857902884,219792.849698007,224625.058035642,224625.050840408,227229.42997545,227229.420545369,"01055"
125,2,1,3,1,1,0.575984456576407,0.709796755138086,1,228752.607080847,228752.598320812,232755.156971246,232755.146231174,229336.757189274,229336.74999398,233482.730601847,233482.719651759,236757.34219873,236757.332593858,"01055"
126,2,1,3,1,0,0.905197030282579,0.793993424624205,0,238280.213146895,238280.204916835,242321.752739221,242321.743353933,239194.687487483,239194.677712619,243128.771355361,243128.763960123,246324.811008483,246324.801078409,"01055"
127,2,1,3,1,1,0.661389201850398,0.809666574699804,1,247835.853812009,247835.844416738,251838.32245177,251838.313046515,248512.696386784,248512.688836724,252656.306055665,252656.29759559,255846.857184857,255846.848514795,"01055"
128,2,2,2,0,1,0.972444473445648,1.39239644788904,1,257371.750564009,257371.742423952,261374.209943682,261374.201003611,258352.33151865,258352.323753774,262784.300824404,262784.29299435,265376.399986416,265376.391156346,"01055"
129,1,2,2,0,1,1.00300905192853,0.685453985497588,0,266918.668144554,266918.658059269,270961.928355426,270961.919570565,267928.162025303,267928.154405236,271656.075918615,271656.068078548,274964.150993198,274964.141183108,"01055"
130,2,1,2,0,1,0.641070737270638,0.512788021296728,1,276471.688633531,276471.679593444,280474.427755415,280474.418570548,277128.218965739,277128.210975707,280995.973097801,280995.964892924,284496.836769879,284496.827519804,"01055"
131,2,1,3,1,1,0.799357069598045,0.803204775816994,0,286020.672030568,286020.663380504,290029.63461709,290029.625482202,286831.791954339,286831.784474283,290847.704846829,290847.697096795,294031.91536054,294031.905900449,"01055"
132,1,2,2,1,1,0.558227356290445,0.634772542078281,1,295553.070254564,295553.061034501,299559.303369641,299559.294029534,296135.920802563,296135.913822502,300207.778877437,300207.77054736,303564.135158271,303564.125163019,"01055"
133,1,2,3,1,1,0.830285474250559,1.41818690419313,0,305078.981441855,305078.971866965,309081.500482023,309081.491141915,305921.320325792,305921.309530467,310519.750617981,310519.743313134,313082.559790492,313082.551315635,"01055"
134,1,2,2,1,0,0.91628728955402,1.76212249649689,1,314604.788913488,314604.778718233,318607.425564617,318607.415384531,315535.347352803,315535.339652717,320375.531659454,320375.524289399,322609.700507581,322609.691302717,"01055"
135,1,1,3,0,0,0.768153463926865,1.07315713915159,1,324114.524396181,324114.514221311,328127.251213193,328127.242473155,324898.139245093,324898.130370229,329215.151186407,329215.143256336,332129.521796197,332129.512636095,"01055"
136,1,1,3,1,0,0.420787907962222,1.11324113461887,0,333643.040314317,333643.031189442,337645.581619859,337645.57292977,334079.289209515,334079.281949461,338767.071791768,338767.063571721,341647.966858923,341647.956383646,"01055"
137,1,2,2,1,1,0.81074813863961,1.71061668361654,0,343212.890663117,343212.660736501,347215.38117823,347215.369992971,344031.223939776,344031.216689736,348943.16185531,348943.154780447,351217.663386524,351217.654171258,"01055"
138,1,2,2,1,1,0.513811585435178,0.477875956887146,1,352742.386274308,352742.37731421,356744.922554582,356744.913759321,353262.869478166,353262.861598104,357238.959021688,357238.951276809,360767.080656648,360767.070656568,"01055"
139,1,2,2,1,1,0.736791249073576,1.12413619176368,1,362282.225447804,362282.216297716,366291.805269659,366291.795769542,363031.170404583,363031.162154496,367430.516549319,367430.508644074,370295.082500666,370295.071485758,"01055"
140,1,1,2,1,0,0.799504669150338,1.0597306091222,1,371810.678145438,371810.668910563,375820.151851207,375820.143131167,372622.441564739,372622.433654666,376894.643937141,376894.636222303,379824.546561569,379824.536741495,"01055"
141,1,1,3,1,0,0.950412868027342,0.754197189526167,0,381362.444424778,381362.435269475,385365.404808462,385365.396188349,382318.579543829,382318.571973801,386134.406410456,386134.398200393,389367.656211257,389367.646706372,"01055"
142,1,2,2,0,1,1.69737900979817,1.88399606588064,1,390881.247405201,390881.237665087,394883.818110526,394883.809390485,392594.160313278,392594.152283221,396776.040693521,396776.032848269,398890.154506415,398890.14424637,"01055"
143,1,2,2,0,1,1.31674439576454,1.49894057540223,1,400409.844208777,400409.835093886,404414.099592805,404414.089732707,401742.049631596,401742.042081535,405919.656857252,405919.648637205,408430.478029042,408430.468513727,"01055"
144,0,0,0,1,0,0,0,0,409938.440952748,409938.43150267,0,0,0,0,0,0,0,0,"01055"
145,1,2,2,0,1,0.106787222175626,1.13170302426443,1,419488.897906393,419488.886596292,423502.863708109,423502.853572816,419613.958861679,419613.94983682,424652.210947692,424652.202162832,427505.200541615,427505.190381527,"01055"
146,1,1,3,1,0,0.609051108185668,1.4540456958639,1,429028.978127033,429028.968531758,433031.607888043,433031.599482805,429653.496603191,429653.488893121,434493.759185284,434493.752405226,437033.997737199,437033.988307118,"01055"
147,1,2,2,1,0,0.705509589519352,0.901964486547513,0,438540.742315918,438540.733531088,442545.027590245,442545.017415345,439272.705216825,439272.695891559,443453.523373395,443453.515473306,446547.370544165,446547.360894084,"01055"
148,1,2,2,0,0,0.841216109751258,0.925175275304355,0,448056.094698757,448056.085698694,452067.645001173,452067.635736287,448909.321814567,448909.314029694,453005.316622525,453005.309162468,456070.000065207,456069.990039915,"01055"
149,1,2,2,1,1,0.775740058597876,2.35439851376577,1,457597.890668333,457597.881343067,461600.519794136,461600.511354089,458390.7862463,458390.776851416,463965.25607726,463965.248411983,465602.896053165,465602.886713117,"01055"
150,1,2,2,1,1,0.894642874103738,1.57098288461566,0,467130.068315744,467130.058630466,471134.636547089,471134.627117008,468036.774739385,468036.766324133,472725.022130162,472725.012000084,475137.002286017,475136.992321134,"01055"
1,1,2,3,0,0,1.67971665016375,0.646061787381768,0,18.9743316173553,18.9572968482971,4047.7725520134,4047.76118707657,1719.38439011574,1719.37274479866,4714.60886192322,4714.59537172318,8059.23111891747,8059.22290372849,"1456"
2,2,1,3,1,0,1.07665740698576,0.63225222658366,1,9571.11133384705,9571.0990986824,13572.6419210434,13572.6341061592,10659.62738204,10659.6199719906,14227.2987635136,14227.2906031609,17573.995131731,17573.9855971336,"1456"
3,2,1,3,0,1,0.787994797574356,2.32104909233749,1,19079.505825758,19079.4957108498,23080.9376626015,23080.928907156,19883.161860466,19883.1538403034,25411.77506423,25411.7648892403,27082.2973880768,27082.2844932079,"1456"
4,2,1,2,0,0,0.804639070993289,1.41707489173859,1,28591.1482741833,28591.1383442879,32592.593300581,32592.5840904713,29411.3234555721,29411.3160302639,34019.0658175945,34019.0577874184,36593.8079302311,36593.7985754013,"1456"
5,2,1,3,1,1,0.756459405645728,0.736532039940357,1,38103.0384640694,38103.0288393497,42104.4674055576,42104.4584007263,38874.9902997017,38874.9823448658,42850.7533960342,42850.7457709312,46105.7745158672,46105.7635612488,"1456"
6,1,1,3,0,0,1.12398724537343,0.737083250656724,1,47614.8389587402,47614.8290784359,51616.316085577,51616.3072104454,48754.6854672432,48754.6772124767,52362.7749373913,52362.7668070793,55617.594940424,55617.5848257542,"1456"
7,2,1,2,0,1,1.09265131759457,1.07237261766568,1,57126.7757792473,57126.7669892311,61128.2663011551,61128.2569859028,58234.8589639664,58234.8512237072,62226.6259980202,62226.6187427044,65129.5651063919,65129.5552363396,"1456"
8,2,1,3,0,1,1.11602957174182,1.37699261470698,1,66638.5641884804,66638.5544435978,70640.0490553379,70640.0399153233,67771.7448437214,67771.7296936512,72026.3951861858,72026.3871161938,74641.3252203465,74641.3151803017,"1456"
9,2,2,3,1,1,0.900712919188663,1.47260991437361,1,76150.3773429394,76150.3677027225,80156.0074880123,80155.9967930317,77066.5977678299,77066.5904479027,81650.5255038738,81650.5183439255,84158.1584351063,84158.148514986,"1456"
10,2,1,3,1,1,1.19634812464938,1.04133248934522,1,85662.2650279999,85662.2564480305,89667.074221611,89667.063211441,86874.1205379963,86874.1125781536,90714.3934001923,90714.3861250877,93670.1730065346,93670.1628165245,"1456"
11,2,1,3,0,1,0.684683790896088,1.34509604843333,1,95175.4499135017,95175.4407732487,99176.9352004528,99176.9259252548,95874.261703968,95874.2543339729,100530.003909826,100529.996169806,103178.91690135,103178.907191038,"1456"
12,0,0,0,0,1,0,0,0,104685.957062721,104685.946067572,0,0,0,0,0,0,0,0,"1456"
13,2,1,2,1,1,0.780421516858041,2.06537955231033,0,114197.682821274,114197.674106598,118199.099392653,118199.090582371,114993.699159384,114993.691224575,120273.941931486,120273.93494153,122200.371783018,122200.35452795,"1456"
14,2,2,3,0,0,0.796454480383545,0.737452531000599,0,123709.60398674,123709.593376637,127711.014113188,127711.004677773,124521.58096242,124521.573172331,128457.863457918,128457.855522871,131712.317873716,131712.301153421,"1456"
15,2,1,3,1,0,0.732436683494598,0.744763482129201,1,133221.478196859,133221.468141794,137222.946893454,137222.938333273,133969.418275118,133969.410555124,137977.303873539,137977.295933485,141224.230233669,141224.218558788,"1456"
16,1,2,2,0,0,1.19746730104089,0.784385393839329,0,142739.124302864,142739.115152597,146740.615614891,146740.606444836,143946.643023014,143946.63508296,147545.228436947,147545.220271587,150741.915405273,150741.907030344,"1456"
17,2,2,2,0,0,0.700791719835252,1.7213770498056,0,152245.221691608,152245.213656902,156246.800854206,156246.792239189,152961.427471399,152961.420466423,157977.327558279,157977.320743561,160248.076574564,160248.030639172,"1456"
18,1,0,2,1,0,1.31654854095541,0,0,161756.958755493,161756.949965477,165758.438332558,165758.429507256,163089.052137375,163089.044187307,0,0,0,0,"1456"
19,0,0,0,0,0,0,0,0,171268.926151276,171268.897871017,0,0,0,0,0,0,0,0,"1456"
20,1,2,3,1,1,0.916581136640161,0.521081024780869,1,180780.581849813,180780.572574615,184782.091231823,184782.082481623,181712.757231951,181712.749686956,185312.652520895,185312.64533639,188783.32371664,188783.314341545,"1456"
21,0,0,0,1,1,0,0,0,190292.663506508,190292.653861046,0,0,0,0,0,0,0,0,"1456"
22,2,1,2,0,1,0.708524726796895,0.480772561160848,1,199804.428630352,199804.419645309,203805.993853092,203805.98453784,200528.409952164,200528.402002335,204300.160151243,204300.151526213,207807.302838326,207807.293503523,"1456"
23,2,1,3,0,1,1.56398517847992,0.841302335262299,1,209316.187259436,209316.17876935,213317.736341715,213317.727421522,210896.149219036,210896.141309023,214168.309171677,214168.301596165,217319.050737381,217319.041457415,"1456"
24,2,1,2,1,0,0.908760408638045,1.85674790362827,1,218828.042794228,218828.03413415,222829.562531471,222829.553556442,219752.31071353,219752.30336833,224696.709333658,224696.700848579,226830.795086145,226830.785635948,"1456"
25,1,1,3,0,0,0.604606005363166,0.768771904055029,1,228339.889564276,228339.880848885,232352.804557562,232352.795707464,228961.195329428,228961.186159372,233136.178649187,233136.171024561,236354.09276247,236354.082897663,"1456"
26,2,2,3,1,0,0.827534194104373,1.57488724286668,1,237868.432472706,237868.423752308,241881.369285822,241881.361200571,238712.76554203,238712.756457329,243470.94491744,243470.936412573,245882.65361619,245882.643406153,"1456"
27,0,0,0,0,1,0,0,0,247396.988495588,247396.980160713,0,0,0,0,0,0,0,0,"1456"
28,2,1,2,0,0,0.699215362314135,0.816035705851391,1,256908.758015156,256908.748569727,260910.417953253,260910.408442974,257623.569533587,257623.562723637,261735.727885723,261735.719715595,264916.85127449,264916.841064453,"1456"
29,2,1,3,0,1,0.779381273780018,1.45602544979192,1,266423.409422398,266423.400952101,270425.216751575,270425.206136703,267215.576519728,267215.569184303,271889.667597294,271889.658717155,274426.553087473,274426.542662144,"1456"
30,1,2,2,1,1,1.69149453821592,0.582981272367761,0,275932.690811396,275932.682251215,279945.536474228,279945.527173996,277639.526291132,277639.518496037,280543.077824593,280543.070459604,283946.823944569,283946.813399553,"1456"
31,1,1,2,0,1,0.785311629995704,0.926350340945646,0,285476.082828522,285476.07409358,289477.816202402,289477.806337595,286278.955706835,286278.947771549,290415.009094954,290415.00138998,293479.186758518,293479.177133322,"1456"
32,2,2,3,0,0,1.28962178085931,1.22236116905697,0,294989.665752411,294989.657372475,298991.613487959,298991.602307796,296294.807223558,296294.799723387,300222.843862534,300222.836527586,302992.959608793,302992.949613571,"1456"
33,0,0,0,0,0,0,0,0,304501.485771656,304501.47518158,0,0,0,0,0,0,0,0,"1456"
34,1,2,3,1,0,1.27376240422018,2.25422909273766,1,314013.239575624,314013.230285883,318014.886239052,318014.877098799,315302.616590738,315302.608746052,320278.45913291,320278.45128727,322016.262555122,322016.252229929,"1456"
35,2,2,3,0,0,0.737809716025367,1.10242102108896,0,323525.27502203,323525.266102076,327526.952840805,327526.944060564,324280.045970201,324280.037350178,328638.436602592,328638.429047346,331528.866200924,331528.857545853,"1456"
36,2,1,2,0,0,1.16189568396658,0.854441645322368,0,333037.0070858,333036.997295856,337038.807180405,337038.79820013,334214.43005538,334214.422370434,337902.293533564,337902.285768032,341040.372158051,341040.363057852,"1456"
37,2,1,2,1,0,0.68976387148723,0.726466493448243,0,342550.401023149,342550.392348289,346552.078461647,346552.069376469,343254.148338079,343254.140252829,347286.164879322,347286.157904387,350553.559658289,350553.547018051,"1456"
38,2,1,2,0,0,1.12998310872354,1.21431054081768,0,352060.825101852,352060.81613636,356062.595430613,356062.585630655,353206.200949669,353206.193789244,357285.867296696,357285.860056639,360063.970721722,360063.960701704,"1456"
39,2,1,2,0,0,1.29805072303861,1.39840589370579,0,361572.529770136,361572.521005154,365574.218538761,365574.20940876,362886.109268665,362886.102228642,366981.798744202,366981.79026413,369575.636399984,369575.626284838,"1456"
40,2,2,3,0,0,1.40935570886359,1.03848222806118,1,371084.415840387,371084.406425238,375086.169379234,375086.160284519,372509.589636564,372509.582346439,376133.705369711,376133.698364735,379092.497019768,379092.486974955,"1456"
41,2,2,2,0,0,0.650002349633723,1.83848337433301,0,380596.299125433,380596.290255308,384598.008558989,384597.999433994,381261.758689165,381261.751233816,386445.55364418,386445.545654297,388599.426110506,388599.416220427,"1456"
42,2,1,3,1,0,1.22582559543662,1.26237982884049,0,390108.198905468,390108.189695358,394109.836918354,394109.828203678,391349.537376165,391349.527931213,395381.308100462,395381.300145388,398116.211584806,398116.201609612,"1456"
43,0,0,0,1,1,0,0,0,399619.990074873,399619.981659651,0,0,0,0,0,0,0,0,"1456"
44,0,0,0,0,1,0,0,0,409131.67948842,409131.670518398,0,0,0,0,0,0,0,0,"1456"
45,1,1,2,0,1,2.59369993838482,1.72668091859668,1,418643.555393696,418643.546483517,422645.30694747,422645.297512293,421252.8332479,421252.825847864,424381.126214027,424381.118808746,426646.792244196,426646.78255415,"1456"
46,0,0,0,0,0,0,0,0,428155.396318197,428155.387822866,0,0,0,0,0,0,0,0,"1456"
47,1,1,2,0,1,0.7939929633867,1.41453531105071,1,437667.294633627,437667.286323309,441669.007436991,441668.998581648,438476.808969498,438476.801609516,443092.681786537,443092.670381308,445670.432573318,445670.421773195,"1456"
48,0,0,0,1,1,0,0,0,447179.122388124,447179.113952875,0,0,0,0,0,0,0,0,"1456"
49,1,2,2,0,0,0.689975773217157,0.590059635229409,0,456690.898052454,456690.888886929,460692.648306131,460692.639740944,457396.461211443,457396.453896761,461292.007276058,461291.999135733,464694.273653984,464694.264993906,"1456"
50,1,1,3,1,0,0.890049563953653,1.01474207174033,1,466202.947578669,466202.938788414,470205.199776649,470205.19146657,467108.382322073,467108.374891996,471228.395256996,471228.387656927,474206.719973564,474206.70959878,"1456"
51,1,1,3,0,0,2.01184859243222,0.912248919485137,0,1.00782299041748,0.999927997589111,4002.79382228851,4002.78473711014,2027.61963582039,2027.58858561516,4925.87743186951,4925.86843705177,8004.31176948547,8004.29262447357,"1456"
52,2,2,3,1,1,0.595952981384471,0.63278070720844,0,9512.74460196495,9512.7358019352,13514.4671404362,13514.4585704803,10123.5094928741,10123.5020129681,14155.6410198212,14155.6337151527,17515.9867627621,17515.9760477543,"1456"
53,1,2,2,0,0,0.459460638463497,1.20082657341845,0,19024.1804134846,19024.171513319,23028.3767018318,23028.367577076,19499.2858691216,19499.2774891853,24235.5147740841,24235.5075941086,27029.8543436527,27029.844648838,"1456"
54,2,2,3,1,0,1.46015740628354,0.84086256660521,0,28538.1782302856,28538.1695752144,32539.9341042042,32539.9250943661,30011.3942759037,30011.3873860836,33387.4027493,33387.3955440521,36541.5037369728,36541.4936566353,"1456"
55,1,1,2,1,1,1.83618935453705,0.784766603028402,0,38047.5493853092,38047.5409104824,42050.9797427654,42050.9698724747,39899.2696740627,39899.2625641823,42843.181520462,42843.174090147,46052.5383751392,46052.5276303291,"1456"
56,1,1,2,0,0,2.40416334825568,2.65675768652,1,47559.5320065022,47559.5233609676,51563.3284215927,51563.3189713955,49979.0817525387,49979.0744326115,54226.9863605499,54226.9789960384,55564.8802390099,55564.869273901,"1456"
57,2,1,3,0,1,0.588270686333999,1.27288583968766,0,57073.7503499985,57073.741714716,61075.5512592793,61075.542579174,57675.0332503319,57675.0258150101,62354.9694745541,62354.9619545937,65077.1656322479,65077.1545519829,"1456"
58,2,2,3,1,1,1.46834480646066,1.05681446776725,0,66583.0943748951,66583.0854995251,70585.0630853176,70585.0541703701,68066.948340416,68066.9409854412,71650.7196307182,71650.7115004063,74586.6528980732,74586.6425280571,"1456"
59,2,1,2,0,1,1.05932210339233,1.32786933402531,1,76112.8378574848,76112.8289775848,80114.8537836075,80114.8443434238,77186.5013520718,77186.4935319424,81450.3684277534,81450.3607330322,84116.5196921825,84116.5019869804,"1456"
60,1,2,3,0,1,1.21078419638798,1.51938273385167,1,85625.4865686893,85625.4773638248,89634.1605732441,89634.1516432762,86850.2215764523,86850.2136964798,91170.4137632847,91170.406578064,93635.7643461227,93635.754076004,"1456"
61,2,2,3,0,1,1.43418349698186,1.81547771045007,0,95152.077716589,95152.0695612431,99153.8712408543,99153.8623757362,96602.0822415352,96602.069196701,100978.358656883,100978.351856947,103155.483464003,103155.473583698,"1456"
62,2,1,2,0,0,1.0588941029273,0.535972735378891,0,104664.150603294,104664.142198086,108666.199154377,108666.189939499,105738.317866564,105738.311251163,109210.698875666,109210.691705465,112667.746386766,112667.73598671,"1456"
63,1,1,2,1,1,1.32220780383795,0.639336072374135,0,114177.165572166,114177.156277418,118179.094607592,118179.085727453,115513.798215389,115513.790750265,118825.912482262,118825.904677391,122180.716165781,122180.705940485,"1456"
64,2,2,2,0,0,0.898660692386329,0.743451449321583,1,123687.619771004,123687.61151576,127689.526371002,127689.517090797,124601.767604113,124601.760568857,128441.864054918,128441.85711956,131691.235129833,131691.224599838,"1456"
65,0,0,0,1,0,0,0,0,133216.31916523,133216.310645342,0,0,0,0,0,0,0,0,"1456"
66,1,2,3,0,1,1.64199817995541,1.3901457679458,0,142727.899803162,142727.891648054,146729.784393072,146729.774538279,144385.499174118,144385.491968632,148130.308722496,148130.299662352,150732.161587238,150732.151721954,"1456"
67,1,1,2,1,0,1.83413298684172,0.950441088760272,1,152241.713613749,152241.70471859,156243.817180395,156243.807585239,154089.493030787,154089.485700846,157201.159649372,157201.151449442,160245.475698709,160245.465283871,"1456"
68,1,1,2,1,1,1.36951748398133,1.50280900020152,1,161751.694913626,161751.685963631,165753.612558842,165753.603448868,163137.048176289,163137.039971113,167265.307872534,167265.300807238,169755.465858459,169755.457373619,"1456"
69,2,1,3,0,0,2.6099755235482,0.846621109638363,1,171265.371457815,171265.363377571,175267.902323246,175267.892358065,173889.020632029,173889.013687134,176120.975172758,176120.967507601,179269.701222658,179269.690957546,"1456"
70,2,1,3,0,1,1.39392431802116,0.926832512253895,1,180775.387042999,180775.378493071,184777.316138506,184777.307308435,182184.819658756,182184.812348366,185713.018874407,185713.011664152,188778.987401962,188778.977136612,"1456"
71,2,0,2,1,1,1.58554623415694,0,0,190287.259418249,190287.250697851,194289.233143806,194289.224598646,191888.5655334,191888.558008671,0,0,0,0,"1456"
72,2,2,2,1,0,0.820129708619788,0.91013590246439,1,199799.645167112,199799.634611845,203812.399959326,203812.391489267,200634.696062326,200634.688932419,204736.739248753,204736.73171854,207814.12797308,207814.117347717,"1456"
73,1,1,2,0,0,1.49731526244432,1.54072883934714,1,209337.226412535,209337.210832596,213339.204358578,213339.195573568,210857.168352127,210857.161257267,214896.222294569,214896.21488452,217340.932712317,217340.922842264,"1456"
74,1,1,2,1,1,1.1804906076286,1.56480342126451,1,218856.419586182,218856.41104126,222858.532103062,222858.521768332,220052.320653439,220052.311118603,224432.072776794,224432.064631462,226860.258502007,226860.248236895,"1456"
75,1,1,3,1,0,1.15274343686178,2.10937585262582,0,228370.395693064,228370.386593103,232372.392473936,232372.383733749,229536.282910347,229536.275315046,234488.220950603,234488.213650465,236376.159319401,236376.147179365,"1456"
76,1,1,2,0,1,0.880607476457953,1.91729930276051,0,237880.029185057,237880.020640135,241882.068081379,241882.05958128,238775.98431778,238775.977002621,243807.982403994,243807.975338697,245883.818210602,245883.808185339,"1456"
77,2,0,3,0,1,0.936597492778674,0,0,247391.671078205,247391.662423372,251393.631223917,251393.622458935,248343.828155518,248343.820560694,0,0,0,0,"1456"
78,2,2,2,1,0,0.944601594470441,0.549241587752476,1,256905.545104504,256905.536149025,260907.503114939,260907.494364977,257863.690009356,257863.682739496,261464.932554245,261464.923024178,264909.225118637,264909.215718508,"1456"
79,0,0,0,0,1,0,0,0,266415.420728207,266415.412753344,0,0,0,0,0,0,0,0,"1456"
80,1,1,2,0,0,1.28858636273071,1.22122410475276,1,275927.141812086,275927.133541822,279930.250522137,279930.241726637,277231.416101456,277231.407941103,281160.265472174,281160.256412029,283932.042461157,283931.996765852,"1456"
81,1,2,2,0,0,0.856818648753688,0.701480029616505,1,285439.120737791,285439.112202883,289441.163064003,289441.154019356,286311.425831556,286311.418521404,290151.380151272,290151.373185873,293442.945623636,293442.934538364,"1456"
82,0,0,0,1,0,0,0,0,294951.947540283,294951.937160254,0,0,0,0,0,0,0,0,"1456"
83,2,2,2,1,1,0.938461651559919,0.845098499907181,0,304462.678526163,304462.669746161,308464.709397793,308464.700572491,305417.017281055,305417.008006096,309318.751480103,309318.742824793,312467.859913111,312467.850187778,"1456"
84,0,0,0,1,1,0,0,0,313974.62649703,313974.617851734,0,0,0,0,0,0,0,0,"1456"
85,1,1,2,1,1,2.28858804539777,1.04541566083208,0,323486.354530811,323486.346355438,327488.371767044,327488.362721682,325790.576084614,325790.568234444,328542.689506292,328542.682311296,331494.950319529,331494.939754486,"1456"
86,0,0,0,1,0,0,0,0,333006.947590351,333006.938340187,0,0,0,0,0,0,0,0,"1456"
87,0,0,0,0,0,0,0,0,342510.032644987,342510.02390027,0,0,0,0,0,0,0,0,"1456"
88,0,0,0,0,1,0,0,0,352021.945260286,352021.936710358,0,0,0,0,0,0,0,0,"1456"
89,0,0,0,1,1,0,0,0,361533.787830353,361533.779520273,0,0,0,0,0,0,0,0,"1456"
90,0,0,0,1,1,0,0,0,371045.650380135,371045.640975237,0,0,0,0,0,0,0,0,"1456"
91,0,0,0,1,0,0,0,0,380557.417309284,380557.408433914,0,0,0,0,0,0,0,0,"1456"
92,0,0,0,0,1,0,0,0,390069.29902935,390069.290864468,0,0,0,0,0,0,0,0,"1456"
93,0,0,0,0,1,0,0,0,399581.095638752,399581.087353468,0,0,0,0,0,0,0,0,"1456"
94,0,0,0,0,0,0,0,0,409092.972828627,409092.964348555,0,0,0,0,0,0,0,0,"1456"
95,0,0,0,1,1,0,0,0,418604.788718462,418604.780263186,0,0,0,0,0,0,0,0,"1456"
96,0,0,0,1,0,0,0,0,428116.638913155,428116.630397797,0,0,0,0,0,0,0,0,"1456"
97,0,0,0,0,1,0,0,0,437628.469312668,437628.46107769,0,0,0,0,0,0,0,0,"1456"
98,0,0,0,1,1,0,0,0,447140.32369256,447140.31541276,0,0,0,0,0,0,0,0,"1456"
99,0,0,0,0,0,0,0,0,456652.164737463,456652.156332254,0,0,0,0,0,0,0,0,"1456"
100,0,0,0,0,1,0,0,0,466164.03067708,466164.022062302,0,0,0,0,0,0,0,0,"1456"
101,1,2,3,0,0,0.747670428594574,0.599816673435271,0,0.426418542861938,0.418688535690308,4002.66887664795,4002.65966653824,756.02454829216,756.017188310623,4620.18118143082,4620.17401123047,8020.81645178795,8020.80538654327,"1456"
102,2,1,2,1,1,0.737900181440637,0.638976371381432,0,9539.00492715836,9538.99593710899,13541.1735947132,13541.1648492813,10291.653563261,10291.6459782124,14187.9226784706,14187.9150834084,17543.138790369,17543.1289651394,"1456"
103,2,2,3,0,1,0.506431796355173,0.789668216137215,0,19054.6770374775,19054.667132616,23056.8725149632,23056.8642747402,19571.899800539,19571.8920004368,23867.519370079,23867.5115451813,27057.9053583145,27057.8970229626,"1456"
104,1,1,2,1,0,0.954352913424373,0.998828777112067,1,28562.1326823235,28562.1242568493,32564.685567379,32564.6766273975,29531.6752934456,29531.6680333614,33571.4783070087,33571.4707570076,36566.6529233456,36566.6427130699,"1456"
105,1,1,2,0,1,0.553836820879951,2.28676509810612,1,38073.6797294617,38073.6718246937,42075.848952055,42075.840256691,38643.2874062061,38643.2792861462,44371.2482852936,44371.2403950691,46087.1461725235,46087.1359171867,"1456"
106,1,1,2,1,0,0.801139404531568,0.543451917823404,1,47602.2132775784,47602.2044827938,51614.8790991306,51614.8710289001,48418.9459514618,48418.9384515285,52173.3657622337,52173.3553419113,55616.9038305283,55616.8937802315,"1456"
107,1,1,2,0,0,0.92105163144879,1.46143075753935,0,57130.7304210663,57130.721575737,61133.0368442535,61133.0287041664,58067.3442938328,58067.3372685909,62603.0411896706,62603.0334293842,65135.0965907574,65135.0869607925,"1456"
108,2,1,3,0,1,0.816848657792434,1.98868341348134,0,66648.1293649673,66648.1201851368,70655.4690136909,70655.4603135586,67474.9870800972,67474.9801750183,72658.8569307327,72658.8489258289,74657.4932551384,74657.4769499302,"1456"
109,2,2,3,0,0,1.70422576880082,1.63612941536121,1,76171.1153891087,76171.1067588329,80173.4685428143,80173.4602074623,77890.9136772156,77890.9067173004,81818.6395642757,81818.6310741901,84175.751005888,84175.7417612076,"1456"
110,2,1,3,1,0,0.86338496231474,1.63568005012348,0,85704.7492632866,85704.7398879528,89707.111166954,89707.1021318436,86578.6324343681,86578.6246743202,91362.9362487793,91362.9290134907,93709.0951826572,93709.0843026638,"1456"
111,1,2,3,1,1,1.63861045660451,1.86855882732198,1,95231.7020335197,95231.6938786507,99233.9110765457,99233.9025263786,96882.4341347218,96882.4265346527,101124.543066263,101124.534566402,103236.172514677,103236.164354324,"1456"
112,2,2,3,1,0,1.00679064705037,0.898859912296757,1,104740.248022079,104740.239242077,108742.587750673,108742.579120636,105762.428659439,105762.421319485,109650.161476374,109650.153611183,112744.614486933,112744.604956627,"1456"
113,1,2,2,1,0,2.1427686335519,0.970846222247928,0,114257.433944702,114257.425034523,118259.846208811,118259.83729887,116410.275867224,116410.268822193,119250.365458012,119250.35809803,122261.871220112,122261.861414671,"1456"
114,2,2,3,1,0,1.09395581134595,1.31474520289339,1,123783.027524233,123783.019174099,127785.627990246,127785.619014978,124890.019340038,124890.011120081,129107.413794518,129107.405669212,131787.783567429,131787.773922205,"1456"
115,2,1,3,0,0,0.885541240917519,0.962180057307705,0,133292.423754692,133292.414869308,137294.713497877,137294.705497742,134193.735939741,134193.727869987,138265.697330952,138265.689505339,141296.747128963,141296.737019062,"1456"
116,2,1,3,0,0,0.414033399894834,1.08177277911454,0,142809.775998354,142809.767243385,146812.096916676,146812.088531733,143233.77868557,143233.771700144,147913.581923962,147913.573558569,150814.158158541,150814.148443222,"1456"
117,2,2,3,0,0,0.469379378482699,0.889147875132039,0,152335.731345892,152335.722465754,156338.058944464,156338.050694227,152817.694176912,152817.687046528,157249.496265888,157249.488485813,160340.112096071,160340.102060795,"1456"
118,1,2,3,0,1,0.684836740139872,0.8180683394894,1,161844.678357363,161844.669717312,165848.03221941,165848.022954226,162545.311662436,162545.303752422,166673.528648138,166673.520878077,169850.149176359,169850.139186382,"1456"
119,2,2,2,0,0,0.693316911580041,1.06509236060083,0,171363.529338121,171363.519068241,175365.886272192,175365.877696991,172067.402934313,172067.393834352,176449.138598204,176449.131122828,179369.604392052,179369.593496799,"1456"
120,1,1,3,0,1,1.17284066765569,1.09669876494445,1,180894.657827377,180894.648112297,184897.54522562,184897.534620047,182073.391332388,182073.384592295,186009.269069195,186009.261824131,188900.091470718,188900.079740524,"1456"
121,0,0,0,1,1,0,0,0,190433.106060028,190433.09732008,0,0,0,0,0,0,0,0,"1456"
122,2,2,3,1,0,0.506693798583001,0.567703125532717,0,199943.756305218,199943.745395184,203946.363746166,203946.353450775,200464.543281555,200464.534941435,204520.71384573,204520.706455708,207948.411202431,207948.4011271,"1456"
123,2,1,3,1,1,1.10738643049262,0.67971005779691,1,209453.983891964,209453.975151777,213456.722168922,213456.711688995,210578.243755817,210578.234731197,214144.556231737,214144.548621655,217461.951765537,217461.943080664,"1456"
124,2,1,2,1,1,0.547401381190866,0.895709072472528,0,218965.941982746,218965.933207512,222968.458832741,222968.450477362,219528.747145176,219528.740019798,223872.396614313,223872.389464378,226971.019198179,226971.008827925,"1456"
125,1,1,2,1,1,2.33137806248851,1.40733012906276,0,228484.801373482,228484.79268837,232487.19649291,232487.188437462,230824.590536594,230824.583371878,233912.557565689,233912.549700499,236490.279522181,236490.268632174,"1456"
126,1,2,2,1,1,0.91683766245842,0.751001681899652,0,238006.231275082,238006.222655058,242008.747945309,242008.738829851,238938.619648933,238938.612128973,242768.094864845,242768.086954594,246010.889687061,246010.879672289,"1456"
127,1,1,2,0,1,0.914474340854213,0.871081473538652,1,247518.123440027,247518.114870071,251520.743801117,251520.73400569,248448.105149984,248448.097504854,252400.002220154,252399.995239973,255522.888933182,255522.878378391,"1456"
128,1,2,2,1,1,0.578472513007,0.525817606598139,1,257036.923780441,257036.915105104,261039.356574774,261039.347909927,257623.93811655,257623.930791616,261583.720144987,261583.712489605,265041.95964098,265041.948575735,"1456"
129,1,1,2,1,1,0.778005418833345,1.66961225960404,1,266565.230821848,266565.222507,270567.683611393,270567.674861431,267352.013141394,267352.006221294,272255.674970388,272255.666840553,274568.77320528,274568.764280081,"1456"
130,2,1,2,0,0,0.817026215838268,0.756891491357237,0,276094.001032114,276093.993021965,280099.831098557,280099.823078394,276919.603852034,276919.596376657,280871.516832113,280871.509207249,284102.028481245,284102.018621445,"1456"
131,2,1,3,1,1,0.824373175157234,0.773054234217852,0,285615.927987337,285615.91872263,289620.557174444,289620.548124313,286455.499654055,286455.492388964,290399.505446196,290399.497861147,293623.458927631,293623.448682785,"1456"
132,2,2,3,0,1,1.0965837368276,1.2051937112119,0,295127.651556253,295127.643136501,299131.12494421,299131.116504192,296239.544891596,296239.537871599,300343.473623037,300343.466217756,303133.324091673,303133.313221693,"1456"
133,2,2,2,0,0,1.47238786891103,1.01250673877075,0,304647.693451643,304647.685391426,308652.060546637,308652.051486492,306127.225747585,306127.218447685,309679.355079889,309679.347339869,312654.235729218,312654.226313591,"1456"
134,2,1,3,1,0,0.855739550897852,0.724466535495594,0,314168.267211199,314168.256626129,318170.763431311,318170.755105972,315039.113152981,315039.105342865,318903.149715185,318903.142220259,322172.986693859,322172.977358818,"1456"
135,2,2,3,0,1,0.543231301009655,0.980496230302379,1,323679.770987988,323679.762853146,327683.101559877,327683.092689991,324238.789320469,324238.781525373,328671.021203518,328671.013903141,331685.301287651,331685.292052269,"1456"
136,1,2,2,0,0,1.19163650623523,0.708278756588697,0,333193.625748873,333193.616658926,337196.147079229,337196.138304234,334398.708834887,334398.700554848,337910.672105312,337910.664120674,341198.40251255,341198.392907143,"1456"
137,2,1,3,0,0,1.30373189481907,0.836168284295127,1,342703.370766878,342703.36256218,346706.344346046,346706.333735943,344022.647701025,344022.640226364,347550.42195344,347550.414123297,350708.568598509,350708.558703661,"1456"
138,2,1,2,0,1,0.743220420787111,0.972425329498947,1,352215.260147333,352215.25129199,356219.954739571,356219.944194794,352974.312364578,352974.304694414,357198.513068199,357198.505683184,360222.199492693,360222.189297676,"1456"
139,1,1,2,1,1,0.975236676866189,1.26044788374566,0,361727.080662012,361727.072006464,365729.604502201,365729.596312046,362718.162550449,362718.154690266,366998.343666792,366998.336486578,369731.874940157,369731.864294767,"1456"
140,1,2,3,1,0,1.58363313926384,0.96419709851034,0,371238.95931673,371238.951166868,375241.473796844,375241.46521163,372838.088739872,372838.080964565,376213.96088171,376213.952966928,379243.749949932,379243.739879847,"1456"
141,2,2,2,0,1,0.79103291220963,0.771641301224008,1,380763.49818778,380763.487343073,384764.76110816,384764.752557993,381574.057697773,381574.049632549,385549.982655048,385549.974229813,388767.041541576,388767.030711412,"1456"
142,1,1,2,0,0,0.814899560529739,1.3147126105614,1,390279.387550354,390279.378940344,394292.087686539,394292.07934165,391109.763378143,391109.755953312,395621.624868155,395621.61704278,398294.968649626,398294.959469557,"1456"
143,2,1,3,0,0,0.525613104691729,0.737276105908677,0,399833.185850859,399833.176535368,403837.41541934,403837.406624556,400365.775406361,400365.767981291,404589.489485979,404589.481595755,407839.764558077,407839.753968,"1456"
144,2,2,2,1,0,0.748795609222725,0.936605460708961,1,409363.76753521,409363.748239994,413366.345885992,413366.337250471,410117.49124527,410117.483589888,414317.348978758,414317.341093779,417368.651264429,417368.640369177,"1456"
145,2,2,2,0,1,0.700326797785237,1.00875494489446,0,418881.66411829,418881.655338287,422884.305114508,422884.296789646,419597.588680506,419597.581490517,423901.316110373,423901.309025526,426889.579821825,426889.565446615,"1456"
146,1,1,2,0,1,0.891081602778286,1.08739608898759,0,428410.229121685,428410.220861912,432412.835172653,432412.827462673,429316.928705215,429316.920735359,433508.594144106,433508.586213827,436415.155916452,436415.145241022,"1456"
147,2,2,3,0,1,0.54765620524995,0.871322660474107,1,437932.792007685,437932.783337355,441935.409468412,441935.401328564,438485.310317516,438485.303347588,442821.006178141,442820.998023272,445937.746842146,445937.736671686,"1456"
148,1,2,2,1,1,0.946975617203861,0.65478744590655,1,447453.471797705,447453.463137865,451456.49186182,451456.480441809,448413.186690569,448413.179195404,452133.030124187,452133.022279263,455467.20728755,455467.198577642,"1456"
149,2,1,3,1,1,0.541595280403271,0.997655141400173,1,456982.955783844,456982.947033405,460986.502607346,460986.493891954,457536.368406057,457536.360275984,462004.549551725,462004.542356253,464988.831140757,464988.821025848,"1456"
150,1,1,3,1,1,0.729230415308848,0.668999471701682,0,466515.191121578,466515.182551384,470517.817142487,470517.80876255,467252.561280489,467252.553525448,471204.43446064,471204.426725388,474520.801051617,474520.789846182,"1456"
1,0,0,0,0,1,0,0,0,12.3180826306343,12.3016576170921,0,0,0,0,0,0,0,0,"01617"
2,1,1,3,1,0,0.890719047834864,1.13448735215934,0,9523.81148052216,9523.80080041289,13532.5777557194,13532.5688156188,10430.6825881898,10430.6730728745,14687.6203214526,14687.6105061173,17542.9434452951,17542.9345352352,"01617"
3,2,2,3,1,0,0.642242825735593,1.29494271805743,0,19052.5155449808,19052.5048148632,23057.1852962077,23057.1739009023,19710.208152473,19710.2016223967,24358.2428989112,24358.2367336154,27062.5749857128,27062.56562078,"01617"
4,1,1,2,0,0,1.66990022760001,1.88641353097046,1,28581.1052132845,28581.095913142,32582.6497365832,32582.6402564645,30268.3678852022,30268.3581551015,34478.2888294458,34478.2824293673,36583.9323019981,36583.9224218726,"01617"
5,1,1,2,0,1,0.689463802380487,0.914771262177965,1,38092.9813457727,38092.9720604718,42094.5535046458,42094.5446293354,38797.9313551784,38797.9253599048,43020.2966735661,43020.2887182534,46099.3018116057,46099.29169631,"01617"
6,1,1,2,0,0,1.07392599110608,0.7338194946351,0,47605.2470729649,47605.2374376655,51610.3764845133,51610.3666191995,48694.2559058666,48694.2495157719,52366.1850742102,52366.1786341369,55611.7267855108,55611.7154453993,"01617"
7,1,2,3,1,1,0.790068764821626,1.6667102893116,0,57116.7791961432,57116.7685160339,61118.3007443845,61118.2916042805,57925.954931438,57925.9474161863,62797.7477329671,62797.7401428819,65119.5499294102,65119.5401392877,"01617"
8,1,1,3,1,0,0.622102999244817,1.30668129897094,0,66628.6180081964,66628.6089032888,70630.1833921969,70630.1723368466,67269.7195366323,67269.7116213441,71949.7720920444,71949.7647071481,74631.5235830843,74631.5139829516,"01617"
9,1,1,2,1,0,0.528244682936929,0.710832156299148,1,76140.506396085,76140.4965307415,80142.1038152575,80142.0952851176,76684.2717660666,76684.2637611628,80862.1601307392,80862.1525006294,84143.439491272,84143.4296111465,"01617"
10,1,1,3,0,1,0.486564832768636,1.8470723440696,1,85652.3799885511,85652.3707232475,89653.951012224,89653.9408620894,86154.4477233589,86154.4405032694,91510.2674732208,91510.2609979212,93655.3531642258,93655.3427489102,"01617"
11,2,1,3,0,1,0.965035604429431,0.617778047337197,1,95164.1689648032,95164.1590198874,99171.0158022046,99171.0056068599,96144.8111177385,96144.8035876453,99816.4663775861,99816.4587075114,103172.350373,103172.342182904,"01617"
12,2,1,2,0,0,0.566073506866815,1.18598988105077,1,104679.00990811,104679.000468016,108681.99822399,108681.989118665,105259.055953473,105259.045833349,109890.989141852,109890.97944653,112687.807493687,112687.796203554,"01617"
13,1,1,3,1,1,0.517417217808543,0.969722160662059,1,114204.651745826,114204.641795695,118206.180158943,118206.167238802,114739.253365844,114739.245360941,119185.271448046,119185.265223175,122207.500030011,122207.491204709,"01617"
14,1,1,2,0,0,0.600220931839431,0.657437363261124,1,123716.634244412,123716.624384284,127718.179668158,127718.167382807,124332.344148099,124332.337788045,128384.97222966,128384.963824362,131719.599699974,131719.591039866,"01617"
15,1,1,2,0,0,0.462905500899069,1.2743159472011,1,133229.831642777,133229.822482646,137231.386221439,137231.372711271,133707.098449975,133707.088589847,138513.674608916,138513.667074025,141232.784303397,141232.775593311,"01617"
16,1,1,2,0,0,0.621477992244763,0.425889739854028,1,142740.49384594,142740.484230608,146746.888912678,146746.878512532,143385.424885094,143385.417319804,147193.82063064,147193.813750565,150756.620919466,150756.612459362,"01617"
